[
  {
    "evaluation_id": "FPH-0001",
    "metadata_table": "SUBJECT",
    "metadata_variable": "STUDYID",
    "annotation_table": "受试者信息",
    "annotation_variable": "研究代码",
    "SDTM_Domain": "DM",
    "SDTM_Variable": "STUDYID",
    "reference_source": "KB",
    "evaluation_cohort": "AI_RECOMMENDATION"
  },
  {
    "evaluation_id": "FPH-0002",
    "metadata_table": "SUBJECT",
    "metadata_variable": "SITENAME",
    "annotation_table": "受试者信息",
    "annotation_variable": "中心名称",
    "SDTM_Domain": "DM",
    "SDTM_Variable": "QVAL when QNAM=SITENAM",
    "reference_source": "KB",
    "evaluation_cohort": "AI_RECOMMENDATION"
  },
  {
    "evaluation_id": "FPH-0003",
    "metadata_table": "SUBJECT",
    "metadata_variable": "SITEID",
    "annotation_table": "受试者信息",
    "annotation_variable": "中心编号",
    "SDTM_Domain": "DM",
    "SDTM_Variable": "SITEID",
    "reference_source": "KB",
    "evaluation_cohort": "AI_RECOMMENDATION"
  },
  {
    "evaluation_id": "FPH-0004",
    "metadata_table": "SUBJECT",
    "metadata_variable": "INVNAM",
    "annotation_table": "受试者信息",
    "annotation_variable": "研究者",
    "SDTM_Domain": "DM",
    "SDTM_Variable": "INVNAM",
    "reference_source": "KB",
    "evaluation_cohort": "AI_RECOMMENDATION"
  },
  {
    "evaluation_id": "FPH-0006",
    "metadata_table": "SUBJECT",
    "metadata_variable": "SUBJID",
    "annotation_table": "受试者信息",
    "annotation_variable": "受试者筛选号",
    "SDTM_Domain": "DM",
    "SDTM_Variable": "SUBJID",
    "reference_source": "KB",
    "evaluation_cohort": "AI_RECOMMENDATION"
  },
  {
    "evaluation_id": "FPH-0007",
    "metadata_table": "SUBJECT",
    "metadata_variable": "STATUS",
    "annotation_table": "受试者信息",
    "annotation_variable": "受试者状态",
    "SDTM_Domain": "DM",
    "SDTM_Variable": "QVAL when QNAM=STATUS",
    "reference_source": "KB",
    "evaluation_cohort": "AI_RECOMMENDATION"
  },
  {
    "evaluation_id": "FPH-0008",
    "metadata_table": "SUBJECT",
    "metadata_variable": "CRFVER",
    "annotation_table": "受试者信息",
    "annotation_variable": "eCRF版本号",
    "SDTM_Domain": "",
    "SDTM_Variable": "NOT SUBMITTED",
    "reference_source": "KB",
    "evaluation_cohort": "AI_RECOMMENDATION"
  },
  {
    "evaluation_id": "FPH-0009",
    "metadata_table": "SUBJECT",
    "metadata_variable": "CRFSTS",
    "annotation_table": "受试者信息",
    "annotation_variable": "eCRF状态",
    "SDTM_Domain": "",
    "SDTM_Variable": "NOT SUBMITTED",
    "reference_source": "KB",
    "evaluation_cohort": "AI_RECOMMENDATION"
  },
  {
    "evaluation_id": "FPH-0010",
    "metadata_table": "SUBJECT",
    "metadata_variable": "SUBPR",
    "annotation_table": "受试者信息",
    "annotation_variable": "研究设计类型",
    "SDTM_Domain": "DM",
    "SDTM_Variable": "QVAL when QNAM=SUBPR",
    "reference_source": "LLM",
    "evaluation_cohort": "AI_RECOMMENDATION"
  },
  {
    "evaluation_id": "FPH-0023",
    "metadata_table": "SV",
    "metadata_variable": "VISDAT",
    "annotation_table": "访视日期",
    "annotation_variable": "访视日期",
    "SDTM_Domain": "SV",
    "SDTM_Variable": "SVSTDTC/SVENDTC",
    "reference_source": "KB",
    "evaluation_cohort": "KB_AGREE"
  },
  {
    "evaluation_id": "FPH-0024",
    "metadata_table": "IC",
    "metadata_variable": "RFICDAT",
    "annotation_table": "知情同意",
    "annotation_variable": "首次签署知情同意书日期",
    "SDTM_Domain": "DS",
    "SDTM_Variable": "DSSTDTC",
    "reference_source": "LLM",
    "evaluation_cohort": "KB_DISAGREE"
  },
  {
    "evaluation_id": "FPH-0025",
    "metadata_table": "IC",
    "metadata_variable": "PROVER",
    "annotation_table": "知情同意",
    "annotation_variable": "首次签署知情同意书对应的方案版本号",
    "SDTM_Domain": "DS",
    "SDTM_Variable": "QVAL when QNAM=ICVER",
    "reference_source": "LLM",
    "evaluation_cohort": "KB_DISAGREE"
  },
  {
    "evaluation_id": "FPH-0026",
    "metadata_table": "IC",
    "metadata_variable": "REICYN",
    "annotation_table": "知情同意",
    "annotation_variable": "是否因方案变更重新签署知情同意书?",
    "SDTM_Domain": "",
    "SDTM_Variable": "NOT SUBMITTED",
    "reference_source": "LLM",
    "evaluation_cohort": "AI_RECOMMENDATION"
  },
  {
    "evaluation_id": "FPH-0027",
    "metadata_table": "IC_DE",
    "metadata_variable": "IC1DAT",
    "annotation_table": "重新签署知情同意书",
    "annotation_variable": "重新签署知情同意书日期",
    "SDTM_Domain": "DS",
    "SDTM_Variable": "DSSTDTC",
    "reference_source": "LLM",
    "evaluation_cohort": "AI_RECOMMENDATION"
  },
  {
    "evaluation_id": "FPH-0028",
    "metadata_table": "IC_DE",
    "metadata_variable": "PRO1VER",
    "annotation_table": "重新签署知情同意书",
    "annotation_variable": "重新签署知情同意书对应的方案版本号",
    "SDTM_Domain": "DS",
    "SDTM_Variable": "QVAL when QNAM=ICVER",
    "reference_source": "LLM",
    "evaluation_cohort": "AI_RECOMMENDATION"
  },
  {
    "evaluation_id": "FPH-0029",
    "metadata_table": "DM",
    "metadata_variable": "BRTHDAT",
    "annotation_table": "人口学资料",
    "annotation_variable": "出生日期",
    "SDTM_Domain": "DM",
    "SDTM_Variable": "BRTHDTC",
    "reference_source": "KB",
    "evaluation_cohort": "KB_AGREE"
  },
  {
    "evaluation_id": "FPH-0030",
    "metadata_table": "DM",
    "metadata_variable": "AGE",
    "annotation_table": "人口学资料",
    "annotation_variable": "年龄（岁）",
    "SDTM_Domain": "DM",
    "SDTM_Variable": "AGE/AGEU",
    "reference_source": "LLM",
    "evaluation_cohort": "KB_AGREE"
  },
  {
    "evaluation_id": "FPH-0031",
    "metadata_table": "DM",
    "metadata_variable": "SEX",
    "annotation_table": "人口学资料",
    "annotation_variable": "性别",
    "SDTM_Domain": "DM",
    "SDTM_Variable": "SEX",
    "reference_source": "KB",
    "evaluation_cohort": "KB_AGREE"
  },
  {
    "evaluation_id": "FPH-0032",
    "metadata_table": "DM",
    "metadata_variable": "ETHNICC",
    "annotation_table": "人口学资料",
    "annotation_variable": "民族",
    "SDTM_Domain": "DM",
    "SDTM_Variable": "QVAL when QNAM=ETHNICC",
    "reference_source": "KB",
    "evaluation_cohort": "KB_AGREE"
  },
  {
    "evaluation_id": "FPH-0033",
    "metadata_table": "DM",
    "metadata_variable": "ETHNICCO",
    "annotation_table": "人口学资料",
    "annotation_variable": "民族若为其他，请说明",
    "SDTM_Domain": "DM",
    "SDTM_Variable": "QVAL when QNAM=ETHNOTH",
    "reference_source": "LLM",
    "evaluation_cohort": "KB_AGREE"
  },
  {
    "evaluation_id": "FPH-0035",
    "metadata_table": "DM",
    "metadata_variable": "RPREAS",
    "annotation_table": "人口学资料",
    "annotation_variable": "若否，请说明原因",
    "SDTM_Domain": "DM",
    "SDTM_Variable": "QVAL when QNAM=RPREAS",
    "reference_source": "LLM",
    "evaluation_cohort": "KB_AGREE"
  },
  {
    "evaluation_id": "FPH-0036",
    "metadata_table": "MHYN",
    "metadata_variable": "MHYN",
    "annotation_table": "既往及现病史问询页",
    "annotation_variable": "是否存在既往及现病史？",
    "SDTM_Domain": "XM",
    "SDTM_Variable": "XMORRES when XMTEXTCD=MHYN",
    "reference_source": "KB",
    "evaluation_cohort": "KB_DISAGREE"
  },
  {
    "evaluation_id": "FPH-0037",
    "metadata_table": "MH",
    "metadata_variable": "MHTERM",
    "annotation_table": "既往及现病史",
    "annotation_variable": "疾病/诊断名称",
    "SDTM_Domain": "MH",
    "SDTM_Variable": "MHTERM",
    "reference_source": "LLM",
    "evaluation_cohort": "KB_AGREE"
  },
  {
    "evaluation_id": "FPH-0038",
    "metadata_table": "MH",
    "metadata_variable": "MHSTDAT",
    "annotation_table": "既往及现病史",
    "annotation_variable": "开始日期",
    "SDTM_Domain": "MH",
    "SDTM_Variable": "MHSTDTC",
    "reference_source": "KB",
    "evaluation_cohort": "KB_AGREE"
  },
  {
    "evaluation_id": "FPH-0039",
    "metadata_table": "MH",
    "metadata_variable": "MHONGO",
    "annotation_table": "既往及现病史",
    "annotation_variable": "是否持续？",
    "SDTM_Domain": "MH",
    "SDTM_Variable": "MHENRF",
    "reference_source": "KB",
    "evaluation_cohort": "KB_DISAGREE"
  },
  {
    "evaluation_id": "FPH-0040",
    "metadata_table": "MH",
    "metadata_variable": "MHENDAT",
    "annotation_table": "既往及现病史",
    "annotation_variable": "结束日期",
    "SDTM_Domain": "MH",
    "SDTM_Variable": "MHENDTC",
    "reference_source": "KB",
    "evaluation_cohort": "KB_AGREE"
  },
  {
    "evaluation_id": "FPH-0041",
    "metadata_table": "TH6",
    "metadata_variable": "THCLDX",
    "annotation_table": "结肠癌病史",
    "annotation_variable": "临床诊断",
    "SDTM_Domain": "FA",
    "SDTM_Variable": "FAORRES when FATESTCD=THDIA",
    "reference_source": "LLM",
    "evaluation_cohort": "AI_RECOMMENDATION"
  },
  {
    "evaluation_id": "FPH-0042",
    "metadata_table": "TH6",
    "metadata_variable": "THLOC",
    "annotation_table": "结肠癌病史",
    "annotation_variable": "原发肿瘤部位",
    "SDTM_Domain": "FA",
    "SDTM_Variable": "FAORRES when FATESTCD=THLOC",
    "reference_source": "LLM",
    "evaluation_cohort": "AI_RECOMMENDATION"
  },
  {
    "evaluation_id": "FPH-0043",
    "metadata_table": "TH6",
    "metadata_variable": "THPTYP",
    "annotation_table": "结肠癌病史",
    "annotation_variable": "组织病理分型",
    "SDTM_Domain": "FA",
    "SDTM_Variable": "FAORRES when FATESTCD=THCLA",
    "reference_source": "LLM",
    "evaluation_cohort": "AI_RECOMMENDATION"
  },
  {
    "evaluation_id": "FPH-0044",
    "metadata_table": "TH6",
    "metadata_variable": "THPTYPO",
    "annotation_table": "结肠癌病史",
    "annotation_variable": "其他，请说明",
    "SDTM_Domain": "FA",
    "SDTM_Variable": "QVAL when QNAM=FAOROTH when FATESTCD=THCLA",
    "reference_source": "LLM",
    "evaluation_cohort": "AI_RECOMMENDATION"
  },
  {
    "evaluation_id": "FPH-0045",
    "metadata_table": "TH6",
    "metadata_variable": "THINDAT",
    "annotation_table": "结肠癌病史",
    "annotation_variable": "首次病理确诊日期",
    "SDTM_Domain": "FA",
    "SDTM_Variable": "FAORRES when FATESTCD=THFDTC",
    "reference_source": "LLM",
    "evaluation_cohort": "AI_RECOMMENDATION"
  },
  {
    "evaluation_id": "FPH-0046",
    "metadata_table": "TH6",
    "metadata_variable": "THPGRD",
    "annotation_table": "结肠癌病史",
    "annotation_variable": "病理分级",
    "SDTM_Domain": "FA",
    "SDTM_Variable": "FAORRES when FATESTCD=THGRA",
    "reference_source": "LLM",
    "evaluation_cohort": "AI_RECOMMENDATION"
  },
  {
    "evaluation_id": "FPH-0047",
    "metadata_table": "TH6",
    "metadata_variable": "THPGRDO",
    "annotation_table": "结肠癌病史",
    "annotation_variable": "其他病理分级",
    "SDTM_Domain": "FA",
    "SDTM_Variable": "QVAL when QNAM=FAOROTH when FATESTCD=THGRA",
    "reference_source": "LLM",
    "evaluation_cohort": "AI_RECOMMENDATION"
  },
  {
    "evaluation_id": "FPH-0048",
    "metadata_table": "TH6",
    "metadata_variable": "THTNMT",
    "annotation_table": "结肠癌病史",
    "annotation_variable": "现阶段TNM-T分期",
    "SDTM_Domain": "FA",
    "SDTM_Variable": "FAORRES when FATESTCD=THTNMT",
    "reference_source": "LLM",
    "evaluation_cohort": "AI_RECOMMENDATION"
  },
  {
    "evaluation_id": "FPH-0049",
    "metadata_table": "TH6",
    "metadata_variable": "THTNMTO",
    "annotation_table": "结肠癌病史",
    "annotation_variable": "其他现阶段TNM-T分期",
    "SDTM_Domain": "FA",
    "SDTM_Variable": "QVAL when QNAM=FAOROTH when FATESTCD=THTNMT",
    "reference_source": "LLM",
    "evaluation_cohort": "AI_RECOMMENDATION"
  },
  {
    "evaluation_id": "FPH-0050",
    "metadata_table": "TH6",
    "metadata_variable": "THTNMN",
    "annotation_table": "结肠癌病史",
    "annotation_variable": "现阶段TNM-N分期",
    "SDTM_Domain": "FA",
    "SDTM_Variable": "FAORRES when FATESTCD=THTNMN",
    "reference_source": "LLM",
    "evaluation_cohort": "AI_RECOMMENDATION"
  },
  {
    "evaluation_id": "FPH-0051",
    "metadata_table": "TH6",
    "metadata_variable": "THTNMNO",
    "annotation_table": "结肠癌病史",
    "annotation_variable": "其他现阶段TNM-N分期",
    "SDTM_Domain": "FA",
    "SDTM_Variable": "QVAL when QNAM=FAOROTH when FATESTCD=THTNMN",
    "reference_source": "LLM",
    "evaluation_cohort": "AI_RECOMMENDATION"
  },
  {
    "evaluation_id": "FPH-0052",
    "metadata_table": "TH6",
    "metadata_variable": "THTNMM",
    "annotation_table": "结肠癌病史",
    "annotation_variable": "现阶段TNM-M分期",
    "SDTM_Domain": "FA",
    "SDTM_Variable": "FAORRES when FATESTCD=THTNMM",
    "reference_source": "LLM",
    "evaluation_cohort": "AI_RECOMMENDATION"
  },
  {
    "evaluation_id": "FPH-0053",
    "metadata_table": "TH6",
    "metadata_variable": "THTNMMO",
    "annotation_table": "结肠癌病史",
    "annotation_variable": "其他现阶段TNM-M分期",
    "SDTM_Domain": "FA",
    "SDTM_Variable": "QVAL when QNAM=FAOROTH when FATESTCD=THTNMM",
    "reference_source": "LLM",
    "evaluation_cohort": "AI_RECOMMENDATION"
  },
  {
    "evaluation_id": "FPH-0054",
    "metadata_table": "TH6",
    "metadata_variable": "THCLSTA",
    "annotation_table": "结肠癌病史",
    "annotation_variable": "现阶段临床分期",
    "SDTM_Domain": "FA",
    "SDTM_Variable": "FAORRES when FATESTCD=THCLSTA",
    "reference_source": "LLM",
    "evaluation_cohort": "AI_RECOMMENDATION"
  },
  {
    "evaluation_id": "FPH-0055",
    "metadata_table": "TH6",
    "metadata_variable": "THCLSTAO",
    "annotation_table": "结肠癌病史",
    "annotation_variable": "其他现阶段临床分期",
    "SDTM_Domain": "FA",
    "SDTM_Variable": "QVAL when QNAM=FAOROTH",
    "reference_source": "LLM",
    "evaluation_cohort": "AI_RECOMMENDATION"
  },
  {
    "evaluation_id": "FPH-0056",
    "metadata_table": "TH6",
    "metadata_variable": "THMETYN",
    "annotation_table": "结肠癌病史",
    "annotation_variable": "是否有远处转移？",
    "SDTM_Domain": "FA",
    "SDTM_Variable": "FAORRES when FATESTCD=THDTYN",
    "reference_source": "LLM",
    "evaluation_cohort": "AI_RECOMMENDATION"
  },
  {
    "evaluation_id": "FPH-0057",
    "metadata_table": "PRPYN",
    "metadata_variable": "CM1YN",
    "annotation_table": "既往抗肿瘤治疗史问询页",
    "annotation_variable": "是否有既往抗肿瘤药物治疗史？",
    "SDTM_Domain": "XM",
    "SDTM_Variable": "XMORRES when XMTESTCD=DHYN",
    "reference_source": "LLM",
    "evaluation_cohort": "KB_DISAGREE"
  },
  {
    "evaluation_id": "FPH-0058",
    "metadata_table": "PRPYN",
    "metadata_variable": "CM2YN",
    "annotation_table": "既往抗肿瘤治疗史问询页",
    "annotation_variable": "是否有既往抗肿瘤中药治疗史？",
    "SDTM_Domain": "XM",
    "SDTM_Variable": "XMORRES when XMTESTCD=CDHYN",
    "reference_source": "LLM",
    "evaluation_cohort": "KB_DISAGREE"
  },
  {
    "evaluation_id": "FPH-0059",
    "metadata_table": "PRPYN",
    "metadata_variable": "PR1YN",
    "annotation_table": "既往抗肿瘤治疗史问询页",
    "annotation_variable": "是否有既往抗肿瘤放疗史？",
    "SDTM_Domain": "XM",
    "SDTM_Variable": "XMORRES when XMTESTCD=RHYN",
    "reference_source": "LLM",
    "evaluation_cohort": "KB_DISAGREE"
  },
  {
    "evaluation_id": "FPH-0060",
    "metadata_table": "PRPYN",
    "metadata_variable": "PR2YN",
    "annotation_table": "既往抗肿瘤治疗史问询页",
    "annotation_variable": "是否有既往抗肿瘤手术史？",
    "SDTM_Domain": "XM",
    "SDTM_Variable": "XMORRES when XMTESTCD=SGHYN",
    "reference_source": "LLM",
    "evaluation_cohort": "KB_DISAGREE"
  },
  {
    "evaluation_id": "FPH-0061",
    "metadata_table": "PRPYN",
    "metadata_variable": "PR3YN",
    "annotation_table": "既往抗肿瘤治疗史问询页",
    "annotation_variable": "是否有既往抗肿瘤其他治疗史？",
    "SDTM_Domain": "XM",
    "SDTM_Variable": "XMORRES when XMTESTCD=OHYN",
    "reference_source": "LLM",
    "evaluation_cohort": "KB_DISAGREE"
  },
  {
    "evaluation_id": "FPH-0062",
    "metadata_table": "CM1",
    "metadata_variable": "CMREG",
    "annotation_table": "既往抗肿瘤药物治疗史",
    "annotation_variable": "治疗方案名称",
    "SDTM_Domain": "CM",
    "SDTM_Variable": "CMDOSRGM",
    "reference_source": "LLM",
    "evaluation_cohort": "KB_AGREE"
  },
  {
    "evaluation_id": "FPH-0063",
    "metadata_table": "CM1",
    "metadata_variable": "CMPUR",
    "annotation_table": "既往抗肿瘤药物治疗史",
    "annotation_variable": "治疗目的",
    "SDTM_Domain": "CM",
    "SDTM_Variable": "CMINDC",
    "reference_source": "LLM",
    "evaluation_cohort": "KB_DISAGREE"
  },
  {
    "evaluation_id": "FPH-0064",
    "metadata_table": "CM1",
    "metadata_variable": "CMPUROTH",
    "annotation_table": "既往抗肿瘤药物治疗史",
    "annotation_variable": "其他目的，请说明",
    "SDTM_Domain": "CM",
    "SDTM_Variable": "QVAL when QNAM=CMINOTH",
    "reference_source": "LLM",
    "evaluation_cohort": "KB_DISAGREE"
  },
  {
    "evaluation_id": "FPH-0065",
    "metadata_table": "CM1",
    "metadata_variable": "CMSTDAT",
    "annotation_table": "既往抗肿瘤药物治疗史",
    "annotation_variable": "开始日期",
    "SDTM_Domain": "CM",
    "SDTM_Variable": "CMSTDTC",
    "reference_source": "LLM",
    "evaluation_cohort": "KB_AGREE"
  },
  {
    "evaluation_id": "FPH-0066",
    "metadata_table": "CM1",
    "metadata_variable": "CMENDAT",
    "annotation_table": "既往抗肿瘤药物治疗史",
    "annotation_variable": "结束日期",
    "SDTM_Domain": "CM",
    "SDTM_Variable": "CMENDTC",
    "reference_source": "LLM",
    "evaluation_cohort": "KB_AGREE"
  },
  {
    "evaluation_id": "FPH-0067",
    "metadata_table": "CM1",
    "metadata_variable": "CMREASND",
    "annotation_table": "既往抗肿瘤药物治疗史",
    "annotation_variable": "治疗终止原因",
    "SDTM_Domain": "CM",
    "SDTM_Variable": "QVAL when QNAM=CMEOTREA",
    "reference_source": "LLM",
    "evaluation_cohort": "KB_DISAGREE"
  },
  {
    "evaluation_id": "FPH-0068",
    "metadata_table": "CM1",
    "metadata_variable": "CMTROTH",
    "annotation_table": "既往抗肿瘤药物治疗史",
    "annotation_variable": "其他，请详述",
    "SDTM_Domain": "CM",
    "SDTM_Variable": "QVAL when QNAM=CMREAOTH",
    "reference_source": "LLM",
    "evaluation_cohort": "AI_RECOMMENDATION"
  },
  {
    "evaluation_id": "FPH-0069",
    "metadata_table": "CM1",
    "metadata_variable": "CMPDDAT",
    "annotation_table": "既往抗肿瘤药物治疗史",
    "annotation_variable": "疾病进展日期",
    "SDTM_Domain": "CM",
    "SDTM_Variable": "QVAL when QNAM=CMPDDTC",
    "reference_source": "LLM",
    "evaluation_cohort": "AI_RECOMMENDATION"
  },
  {
    "evaluation_id": "FPH-0070",
    "metadata_table": "CM1",
    "metadata_variable": "CMBEA",
    "annotation_table": "既往抗肿瘤药物治疗史",
    "annotation_variable": "最佳疗效评估",
    "SDTM_Domain": "CM",
    "SDTM_Variable": "QVAL when QNAM=CMBEA",
    "reference_source": "LLM",
    "evaluation_cohort": "KB_AGREE"
  },
  {
    "evaluation_id": "FPH-0071",
    "metadata_table": "CM1_DE",
    "metadata_variable": "CMTRT",
    "annotation_table": "既往抗肿瘤药物治疗明细",
    "annotation_variable": "药物名称",
    "SDTM_Domain": "CM",
    "SDTM_Variable": "CMTRT",
    "reference_source": "LLM",
    "evaluation_cohort": "AI_RECOMMENDATION"
  },
  {
    "evaluation_id": "FPH-0072",
    "metadata_table": "CM1_DE",
    "metadata_variable": "CMDPER",
    "annotation_table": "既往抗肿瘤药物治疗明细",
    "annotation_variable": "疗程（周期）",
    "SDTM_Domain": "CM",
    "SDTM_Variable": "QVAL when QNAM=CMDPER",
    "reference_source": "LLM",
    "evaluation_cohort": "AI_RECOMMENDATION"
  },
  {
    "evaluation_id": "FPH-0073",
    "metadata_table": "CM1_DE",
    "metadata_variable": "CMDTYP",
    "annotation_table": "既往抗肿瘤药物治疗明细",
    "annotation_variable": "药物类别",
    "SDTM_Domain": "CM",
    "SDTM_Variable": "CMSCAT",
    "reference_source": "LLM",
    "evaluation_cohort": "AI_RECOMMENDATION"
  },
  {
    "evaluation_id": "FPH-0074",
    "metadata_table": "CM1_DE",
    "metadata_variable": "CMDTYPO",
    "annotation_table": "既往抗肿瘤药物治疗明细",
    "annotation_variable": "药物类别为其他，请说明",
    "SDTM_Domain": "CM",
    "SDTM_Variable": "QVAL when QNAM=CMSCAOTH",
    "reference_source": "LLM",
    "evaluation_cohort": "AI_RECOMMENDATION"
  },
  {
    "evaluation_id": "FPH-0075",
    "metadata_table": "CM2",
    "metadata_variable": "CMTRT",
    "annotation_table": "既往抗肿瘤中药治疗史",
    "annotation_variable": "药物名称",
    "SDTM_Domain": "CM",
    "SDTM_Variable": "CMTRT",
    "reference_source": "LLM",
    "evaluation_cohort": "AI_RECOMMENDATION"
  },
  {
    "evaluation_id": "FPH-0076",
    "metadata_table": "CM2",
    "metadata_variable": "CMSTDAT",
    "annotation_table": "既往抗肿瘤中药治疗史",
    "annotation_variable": "开始日期",
    "SDTM_Domain": "CM",
    "SDTM_Variable": "CMSTDTC",
    "reference_source": "LLM",
    "evaluation_cohort": "KB_AGREE"
  },
  {
    "evaluation_id": "FPH-0077",
    "metadata_table": "CM2",
    "metadata_variable": "CMENDAT",
    "annotation_table": "既往抗肿瘤中药治疗史",
    "annotation_variable": "结束日期",
    "SDTM_Domain": "CM",
    "SDTM_Variable": "CMENDTC",
    "reference_source": "LLM",
    "evaluation_cohort": "KB_AGREE"
  },
  {
    "evaluation_id": "FPH-0078",
    "metadata_table": "PR1",
    "metadata_variable": "PRLOC",
    "annotation_table": "既往抗肿瘤放疗史",
    "annotation_variable": "放疗部位",
    "SDTM_Domain": "PR",
    "SDTM_Variable": "PRLOC",
    "reference_source": "LLM",
    "evaluation_cohort": "KB_AGREE"
  },
  {
    "evaluation_id": "FPH-0079",
    "metadata_table": "PR1",
    "metadata_variable": "PRLOCOTH",
    "annotation_table": "既往抗肿瘤放疗史",
    "annotation_variable": "其他部位，请说明",
    "SDTM_Domain": "PR",
    "SDTM_Variable": "QVAL when QNAM=PRLOCOTH",
    "reference_source": "LLM",
    "evaluation_cohort": "KB_AGREE"
  },
  {
    "evaluation_id": "FPH-0080",
    "metadata_table": "PR1",
    "metadata_variable": "PRDSTXT",
    "annotation_table": "既往抗肿瘤放疗史",
    "annotation_variable": "放疗总剂量",
    "SDTM_Domain": "PR",
    "SDTM_Variable": "PRDOSE/PRDOSTXT",
    "reference_source": "LLM",
    "evaluation_cohort": "KB_AGREE"
  },
  {
    "evaluation_id": "FPH-0081",
    "metadata_table": "PR1",
    "metadata_variable": "PRDOSU",
    "annotation_table": "既往抗肿瘤放疗史",
    "annotation_variable": "放疗总剂量单位",
    "SDTM_Domain": "PR",
    "SDTM_Variable": "PRDOSU",
    "reference_source": "LLM",
    "evaluation_cohort": "KB_AGREE"
  },
  {
    "evaluation_id": "FPH-0082",
    "metadata_table": "PR1",
    "metadata_variable": "PRDOSUO",
    "annotation_table": "既往抗肿瘤放疗史",
    "annotation_variable": "其他，请说明",
    "SDTM_Domain": "PR",
    "SDTM_Variable": "QVAL when QNAM=PRDOUOTH",
    "reference_source": "LLM",
    "evaluation_cohort": "KB_AGREE"
  },
  {
    "evaluation_id": "FPH-0083",
    "metadata_table": "PR1",
    "metadata_variable": "PRPUR",
    "annotation_table": "既往抗肿瘤放疗史",
    "annotation_variable": "放疗目的",
    "SDTM_Domain": "PR",
    "SDTM_Variable": "PRINDC",
    "reference_source": "LLM",
    "evaluation_cohort": "KB_DISAGREE"
  },
  {
    "evaluation_id": "FPH-0084",
    "metadata_table": "PR1",
    "metadata_variable": "PRPUROTH",
    "annotation_table": "既往抗肿瘤放疗史",
    "annotation_variable": "其他目的，请说明",
    "SDTM_Domain": "PR",
    "SDTM_Variable": "QVAL when QNAM=PRINOTH",
    "reference_source": "LLM",
    "evaluation_cohort": "KB_DISAGREE"
  },
  {
    "evaluation_id": "FPH-0085",
    "metadata_table": "PR1",
    "metadata_variable": "PRSTDAT",
    "annotation_table": "既往抗肿瘤放疗史",
    "annotation_variable": "开始日期",
    "SDTM_Domain": "PR",
    "SDTM_Variable": "PRSTDTC",
    "reference_source": "LLM",
    "evaluation_cohort": "KB_AGREE"
  },
  {
    "evaluation_id": "FPH-0086",
    "metadata_table": "PR1",
    "metadata_variable": "PRENDAT",
    "annotation_table": "既往抗肿瘤放疗史",
    "annotation_variable": "结束日期",
    "SDTM_Domain": "PR",
    "SDTM_Variable": "PRENDTC",
    "reference_source": "LLM",
    "evaluation_cohort": "KB_AGREE"
  },
  {
    "evaluation_id": "FPH-0087",
    "metadata_table": "PR2",
    "metadata_variable": "PRTRT",
    "annotation_table": "既往抗肿瘤手术史",
    "annotation_variable": "手术名称",
    "SDTM_Domain": "PR",
    "SDTM_Variable": "PRTRT",
    "reference_source": "LLM",
    "evaluation_cohort": "KB_AGREE"
  },
  {
    "evaluation_id": "FPH-0088",
    "metadata_table": "PR2",
    "metadata_variable": "PR2PUR",
    "annotation_table": "既往抗肿瘤手术史",
    "annotation_variable": "治疗目的",
    "SDTM_Domain": "PR",
    "SDTM_Variable": "PRINDC",
    "reference_source": "LLM",
    "evaluation_cohort": "KB_DISAGREE"
  },
  {
    "evaluation_id": "FPH-0089",
    "metadata_table": "PR2",
    "metadata_variable": "PRPUROTH",
    "annotation_table": "既往抗肿瘤手术史",
    "annotation_variable": "其他治疗目的，请描述",
    "SDTM_Domain": "PR",
    "SDTM_Variable": "QVAL when QNAM=PRINOTH",
    "reference_source": "LLM",
    "evaluation_cohort": "KB_DISAGREE"
  },
  {
    "evaluation_id": "FPH-0090",
    "metadata_table": "PR2",
    "metadata_variable": "PRSTDAT",
    "annotation_table": "既往抗肿瘤手术史",
    "annotation_variable": "手术日期",
    "SDTM_Domain": "PR",
    "SDTM_Variable": "PRSTDTC",
    "reference_source": "LLM",
    "evaluation_cohort": "KB_AGREE"
  },
  {
    "evaluation_id": "FPH-0091",
    "metadata_table": "PR3",
    "metadata_variable": "PRTRT",
    "annotation_table": "既往抗肿瘤其他治疗史",
    "annotation_variable": "治疗方案",
    "SDTM_Domain": "PR",
    "SDTM_Variable": "PRTRT",
    "reference_source": "LLM",
    "evaluation_cohort": "KB_AGREE"
  },
  {
    "evaluation_id": "FPH-0092",
    "metadata_table": "PR3",
    "metadata_variable": "PRSTDAT",
    "annotation_table": "既往抗肿瘤其他治疗史",
    "annotation_variable": "开始日期",
    "SDTM_Domain": "PR",
    "SDTM_Variable": "PRSTDTC",
    "reference_source": "LLM",
    "evaluation_cohort": "KB_AGREE"
  },
  {
    "evaluation_id": "FPH-0093",
    "metadata_table": "PR3",
    "metadata_variable": "PRENDAT",
    "annotation_table": "既往抗肿瘤其他治疗史",
    "annotation_variable": "结束日期",
    "SDTM_Domain": "PR",
    "SDTM_Variable": "PRENDTC",
    "reference_source": "LLM",
    "evaluation_cohort": "KB_AGREE"
  },
  {
    "evaluation_id": "FPH-0094",
    "metadata_table": "VS",
    "metadata_variable": "VSPERF",
    "annotation_table": "生命体征",
    "annotation_variable": "是否进行生命体征检查？",
    "SDTM_Domain": "VS",
    "SDTM_Variable": "VSSTAT",
    "reference_source": "KB",
    "evaluation_cohort": "KB_DISAGREE"
  },
  {
    "evaluation_id": "FPH-0095",
    "metadata_table": "VS",
    "metadata_variable": "VSDAT",
    "annotation_table": "生命体征",
    "annotation_variable": "检查日期",
    "SDTM_Domain": "VS",
    "SDTM_Variable": "VSDTC",
    "reference_source": "KB",
    "evaluation_cohort": "KB_AGREE"
  },
  {
    "evaluation_id": "FPH-0096",
    "metadata_table": "VS_DE",
    "metadata_variable": "VSTEST",
    "annotation_table": "生命体征明细",
    "annotation_variable": "检查项目",
    "SDTM_Domain": "VS",
    "SDTM_Variable": "VSTEST",
    "reference_source": "LLM",
    "evaluation_cohort": "AI_RECOMMENDATION"
  },
  {
    "evaluation_id": "FPH-0097",
    "metadata_table": "VS_DE",
    "metadata_variable": "VSORRES",
    "annotation_table": "生命体征明细",
    "annotation_variable": "检查结果",
    "SDTM_Domain": "VS",
    "SDTM_Variable": "VSORRES",
    "reference_source": "LLM",
    "evaluation_cohort": "AI_RECOMMENDATION"
  },
  {
    "evaluation_id": "FPH-0098",
    "metadata_table": "VS_DE",
    "metadata_variable": "VSCLSI",
    "annotation_table": "生命体征明细",
    "annotation_variable": "临床意义判定",
    "SDTM_Domain": "VS",
    "SDTM_Variable": "QVAL when QNAM=VSCLSIG",
    "reference_source": "LLM",
    "evaluation_cohort": "AI_RECOMMENDATION"
  },
  {
    "evaluation_id": "FPH-0099",
    "metadata_table": "VS_DE",
    "metadata_variable": "VSDESC",
    "annotation_table": "生命体征明细",
    "annotation_variable": "异常有临床意义，请描述",
    "SDTM_Domain": "VS",
    "SDTM_Variable": "QVAL when QNAM=VSDESC",
    "reference_source": "LLM",
    "evaluation_cohort": "AI_RECOMMENDATION"
  },
  {
    "evaluation_id": "FPH-0100",
    "metadata_table": "PE",
    "metadata_variable": "PEPERF",
    "annotation_table": "体格检查",
    "annotation_variable": "是否进行体格检查？",
    "SDTM_Domain": "PE",
    "SDTM_Variable": "PESTAT",
    "reference_source": "KB",
    "evaluation_cohort": "KB_DISAGREE"
  },
  {
    "evaluation_id": "FPH-0101",
    "metadata_table": "PE",
    "metadata_variable": "PEDAT",
    "annotation_table": "体格检查",
    "annotation_variable": "检查日期",
    "SDTM_Domain": "PE",
    "SDTM_Variable": "PEDTC",
    "reference_source": "KB",
    "evaluation_cohort": "KB_AGREE"
  },
  {
    "evaluation_id": "FPH-0102",
    "metadata_table": "PE_DE",
    "metadata_variable": "PETEST",
    "annotation_table": "体格检查明细",
    "annotation_variable": "检查项目",
    "SDTM_Domain": "PE",
    "SDTM_Variable": "PETEST",
    "reference_source": "KB",
    "evaluation_cohort": "AI_RECOMMENDATION"
  },
  {
    "evaluation_id": "FPH-0103",
    "metadata_table": "PE_DE",
    "metadata_variable": "PERES",
    "annotation_table": "体格检查明细",
    "annotation_variable": "检查结果",
    "SDTM_Domain": "PE",
    "SDTM_Variable": "PEORRES",
    "reference_source": "KB",
    "evaluation_cohort": "AI_RECOMMENDATION"
  },
  {
    "evaluation_id": "FPH-0104",
    "metadata_table": "PE_DE",
    "metadata_variable": "PEDESC",
    "annotation_table": "体格检查明细",
    "annotation_variable": "异常，请描述",
    "SDTM_Domain": "PE",
    "SDTM_Variable": "QVAL when QNAM=PEDESC",
    "reference_source": "KB",
    "evaluation_cohort": "AI_RECOMMENDATION"
  },
  {
    "evaluation_id": "FPH-0105",
    "metadata_table": "HW",
    "metadata_variable": "HWPERF",
    "annotation_table": "身高和体重",
    "annotation_variable": "是否进行身高和体重检查？",
    "SDTM_Domain": "VS",
    "SDTM_Variable": "VSSTAT",
    "reference_source": "LLM",
    "evaluation_cohort": "KB_DISAGREE"
  },
  {
    "evaluation_id": "FPH-0106",
    "metadata_table": "HW",
    "metadata_variable": "HWDAT",
    "annotation_table": "身高和体重",
    "annotation_variable": "检查日期",
    "SDTM_Domain": "VS",
    "SDTM_Variable": "VSDTC",
    "reference_source": "LLM",
    "evaluation_cohort": "KB_AGREE"
  },
  {
    "evaluation_id": "FPH-0107",
    "metadata_table": "HW",
    "metadata_variable": "HEIGHT",
    "annotation_table": "身高和体重",
    "annotation_variable": "身高（cm）",
    "SDTM_Domain": "VS",
    "SDTM_Variable": "VSORRES/VSORRESU when VSTESTCD=HEIGHT",
    "reference_source": "LLM",
    "evaluation_cohort": "KB_AGREE"
  },
  {
    "evaluation_id": "FPH-0108",
    "metadata_table": "HW",
    "metadata_variable": "WEIGHT",
    "annotation_table": "身高和体重",
    "annotation_variable": "体重（kg）",
    "SDTM_Domain": "VS",
    "SDTM_Variable": "VSORRES/VSORRESU when VSTESTCD=WEIGHT",
    "reference_source": "LLM",
    "evaluation_cohort": "KB_AGREE"
  },
  {
    "evaluation_id": "FPH-0109",
    "metadata_table": "WT",
    "metadata_variable": "WTPERF",
    "annotation_table": "体重",
    "annotation_variable": "是否进行体重测量？",
    "SDTM_Domain": "VS",
    "SDTM_Variable": "VSSTAT",
    "reference_source": "KB",
    "evaluation_cohort": "KB_DISAGREE"
  },
  {
    "evaluation_id": "FPH-0110",
    "metadata_table": "WT",
    "metadata_variable": "WTDAT",
    "annotation_table": "体重",
    "annotation_variable": "测量日期",
    "SDTM_Domain": "VS",
    "SDTM_Variable": "VSDTC",
    "reference_source": "KB",
    "evaluation_cohort": "KB_AGREE"
  },
  {
    "evaluation_id": "FPH-0111",
    "metadata_table": "WT",
    "metadata_variable": "WEIGHT",
    "annotation_table": "体重",
    "annotation_variable": "体重（kg）",
    "SDTM_Domain": "VS",
    "SDTM_Variable": "VSORRES/VSORRESU when VSTESTCD=WEIGHT",
    "reference_source": "KB",
    "evaluation_cohort": "KB_AGREE"
  },
  {
    "evaluation_id": "FPH-0112",
    "metadata_table": "ECOG",
    "metadata_variable": "ECOGPERF",
    "annotation_table": "ECOG评分",
    "annotation_variable": "是否进行ECOG评分？",
    "SDTM_Domain": "QS",
    "SDTM_Variable": "QSSTAT",
    "reference_source": "KB",
    "evaluation_cohort": "KB_DISAGREE"
  },
  {
    "evaluation_id": "FPH-0113",
    "metadata_table": "ECOG",
    "metadata_variable": "ECOGDAT",
    "annotation_table": "ECOG评分",
    "annotation_variable": "评分日期",
    "SDTM_Domain": "QS",
    "SDTM_Variable": "QSDTC",
    "reference_source": "KB",
    "evaluation_cohort": "KB_DISAGREE"
  },
  {
    "evaluation_id": "FPH-0114",
    "metadata_table": "ECOG",
    "metadata_variable": "ECOGSCO",
    "annotation_table": "ECOG评分",
    "annotation_variable": "ECOG评分",
    "SDTM_Domain": "QS",
    "SDTM_Variable": "QSTEST/QSORRES when QSTESTCD=ECOG",
    "reference_source": "KB",
    "evaluation_cohort": "KB_DISAGREE"
  },
  {
    "evaluation_id": "FPH-0116",
    "metadata_table": "LB",
    "metadata_variable": "LBPERF",
    "annotation_table": "实验室检查",
    "annotation_variable": "是否完成实验室检查？",
    "SDTM_Domain": "LB",
    "SDTM_Variable": "LBSTAT",
    "reference_source": "KB",
    "evaluation_cohort": "KB_DISAGREE"
  },
  {
    "evaluation_id": "FPH-0117",
    "metadata_table": "LB",
    "metadata_variable": "LBDAT",
    "annotation_table": "实验室检查",
    "annotation_variable": "采样日期",
    "SDTM_Domain": "LB",
    "SDTM_Variable": "LBDTC",
    "reference_source": "KB",
    "evaluation_cohort": "KB_AGREE"
  },
  {
    "evaluation_id": "FPH-0118",
    "metadata_table": "LB",
    "metadata_variable": "LBNAM",
    "annotation_table": "实验室检查",
    "annotation_variable": "实验室名称",
    "SDTM_Domain": "LB",
    "SDTM_Variable": "LBNAM",
    "reference_source": "KB",
    "evaluation_cohort": "KB_AGREE"
  },
  {
    "evaluation_id": "FPH-0119",
    "metadata_table": "LB_DE",
    "metadata_variable": "LBTEST",
    "annotation_table": "实验室检查明细",
    "annotation_variable": "检查项目",
    "SDTM_Domain": "LB",
    "SDTM_Variable": "LBTEST/QVAL when QNAM=LBORTEST",
    "reference_source": "KB",
    "evaluation_cohort": "AI_RECOMMENDATION"
  },
  {
    "evaluation_id": "FPH-0120",
    "metadata_table": "LB_DE",
    "metadata_variable": "LBORRES",
    "annotation_table": "实验室检查明细",
    "annotation_variable": "结果",
    "SDTM_Domain": "LB",
    "SDTM_Variable": "LBORRES",
    "reference_source": "KB",
    "evaluation_cohort": "AI_RECOMMENDATION"
  },
  {
    "evaluation_id": "FPH-0121",
    "metadata_table": "LB_DE",
    "metadata_variable": "LBORRESU",
    "annotation_table": "实验室检查明细",
    "annotation_variable": "单位",
    "SDTM_Domain": "LB",
    "SDTM_Variable": "LBORRESU/QVAL when QNAM=LBORUNIT",
    "reference_source": "KB",
    "evaluation_cohort": "AI_RECOMMENDATION"
  },
  {
    "evaluation_id": "FPH-0122",
    "metadata_table": "LB_DE",
    "metadata_variable": "LBCLSI",
    "annotation_table": "实验室检查明细",
    "annotation_variable": "临床意义评价",
    "SDTM_Domain": "LB",
    "SDTM_Variable": "QVAL when QNAM=LBCLSIG",
    "reference_source": "KB",
    "evaluation_cohort": "AI_RECOMMENDATION"
  },
  {
    "evaluation_id": "FPH-0123",
    "metadata_table": "LB_DE",
    "metadata_variable": "LBDESC",
    "annotation_table": "实验室检查明细",
    "annotation_variable": "异常有临床意义，请描述",
    "SDTM_Domain": "LB",
    "SDTM_Variable": "QVAL when QNAM=LBDESC",
    "reference_source": "LLM",
    "evaluation_cohort": "AI_RECOMMENDATION"
  },
  {
    "evaluation_id": "FPH-0125",
    "metadata_table": "LB_DE",
    "metadata_variable": "LBAENO",
    "annotation_table": "实验室检查明细",
    "annotation_variable": "不良事件",
    "SDTM_Domain": "LB",
    "SDTM_Variable": "QVAL when QNAM=LBDEAENO",
    "reference_source": "LLM",
    "evaluation_cohort": "AI_RECOMMENDATION"
  },
  {
    "evaluation_id": "FPH-0126",
    "metadata_table": "LB_DE",
    "metadata_variable": "LBDEOTH",
    "annotation_table": "实验室检查明细",
    "annotation_variable": "其他，请描述",
    "SDTM_Domain": "LB",
    "SDTM_Variable": "QVAL when QNAM=LBDEOTH",
    "reference_source": "LLM",
    "evaluation_cohort": "AI_RECOMMENDATION"
  },
  {
    "evaluation_id": "FPH-0127",
    "metadata_table": "LB_DE",
    "metadata_variable": "LBORNRLO",
    "annotation_table": "实验室检查明细",
    "annotation_variable": "参考范围下限值",
    "SDTM_Domain": "LB",
    "SDTM_Variable": "LBORNRLO",
    "reference_source": "KB",
    "evaluation_cohort": "AI_RECOMMENDATION"
  },
  {
    "evaluation_id": "FPH-0128",
    "metadata_table": "LB_DE",
    "metadata_variable": "LBORNRHI",
    "annotation_table": "实验室检查明细",
    "annotation_variable": "参考范围上限值",
    "SDTM_Domain": "LB",
    "SDTM_Variable": "LBORNRHI",
    "reference_source": "KB",
    "evaluation_cohort": "AI_RECOMMENDATION"
  },
  {
    "evaluation_id": "FPH-0129",
    "metadata_table": "EG2",
    "metadata_variable": "EGPERF",
    "annotation_table": "12导联心电图",
    "annotation_variable": "是否进行12导联心电图检查？",
    "SDTM_Domain": "EG",
    "SDTM_Variable": "EGSTAT",
    "reference_source": "LLM",
    "evaluation_cohort": "AI_RECOMMENDATION"
  },
  {
    "evaluation_id": "FPH-0130",
    "metadata_table": "EG2",
    "metadata_variable": "QTCFMEAN",
    "annotation_table": "12导联心电图",
    "annotation_variable": "QTcF平均值（ms）",
    "SDTM_Domain": "EG",
    "SDTM_Variable": "EGORRES/EGORRESU when EGTESTCD=QTCFM",
    "reference_source": "LLM",
    "evaluation_cohort": "AI_RECOMMENDATION"
  },
  {
    "evaluation_id": "FPH-0131",
    "metadata_table": "EG2",
    "metadata_variable": "EGCLSI",
    "annotation_table": "12导联心电图",
    "annotation_variable": "临床意义评价",
    "SDTM_Domain": "EG",
    "SDTM_Variable": "EGORRES when EGTESTCD=INTP",
    "reference_source": "KB",
    "evaluation_cohort": "AI_RECOMMENDATION"
  },
  {
    "evaluation_id": "FPH-0132",
    "metadata_table": "EG2",
    "metadata_variable": "EGDESC",
    "annotation_table": "12导联心电图",
    "annotation_variable": "异常，请描述",
    "SDTM_Domain": "EG",
    "SDTM_Variable": "QVAL when QNAM=EGDESC",
    "reference_source": "KB",
    "evaluation_cohort": "AI_RECOMMENDATION"
  },
  {
    "evaluation_id": "FPH-0133",
    "metadata_table": "EG2_DE",
    "metadata_variable": "EGSN",
    "annotation_table": "12导联心电图明细",
    "annotation_variable": "序号",
    "SDTM_Domain": "EG",
    "SDTM_Variable": "EGSPID",
    "reference_source": "LLM",
    "evaluation_cohort": "AI_RECOMMENDATION"
  },
  {
    "evaluation_id": "FPH-0134",
    "metadata_table": "EG2_DE",
    "metadata_variable": "EGYN",
    "annotation_table": "12导联心电图明细",
    "annotation_variable": "是否检查",
    "SDTM_Domain": "EG",
    "SDTM_Variable": "EGSTAT",
    "reference_source": "LLM",
    "evaluation_cohort": "AI_RECOMMENDATION"
  },
  {
    "evaluation_id": "FPH-0135",
    "metadata_table": "EG2_DE",
    "metadata_variable": "EGDAT",
    "annotation_table": "12导联心电图明细",
    "annotation_variable": "检查日期",
    "SDTM_Domain": "EG",
    "SDTM_Variable": "EGDTC",
    "reference_source": "KB",
    "evaluation_cohort": "AI_RECOMMENDATION"
  },
  {
    "evaluation_id": "FPH-0136",
    "metadata_table": "EG2_DE",
    "metadata_variable": "EGTIM",
    "annotation_table": "12导联心电图明细",
    "annotation_variable": "检查时间(24小时制)",
    "SDTM_Domain": "EG",
    "SDTM_Variable": "EGDTC",
    "reference_source": "LLM",
    "evaluation_cohort": "AI_RECOMMENDATION"
  },
  {
    "evaluation_id": "FPH-0137",
    "metadata_table": "EG2_DE",
    "metadata_variable": "HR",
    "annotation_table": "12导联心电图明细",
    "annotation_variable": "心率（bpm）",
    "SDTM_Domain": "EG",
    "SDTM_Variable": "EGORRES/EGORRESU when EGTESTCD=HR",
    "reference_source": "LLM",
    "evaluation_cohort": "AI_RECOMMENDATION"
  },
  {
    "evaluation_id": "FPH-0138",
    "metadata_table": "EG2_DE",
    "metadata_variable": "PR",
    "annotation_table": "12导联心电图明细",
    "annotation_variable": "PR（ms）",
    "SDTM_Domain": "EG",
    "SDTM_Variable": "EGORRES/EGORRESU when EGTESTCD=PR",
    "reference_source": "LLM",
    "evaluation_cohort": "AI_RECOMMENDATION"
  },
  {
    "evaluation_id": "FPH-0139",
    "metadata_table": "EG2_DE",
    "metadata_variable": "QT",
    "annotation_table": "12导联心电图明细",
    "annotation_variable": "QT间期（ms）",
    "SDTM_Domain": "EG",
    "SDTM_Variable": "EGORRES/EGORRESU when EGTESTCD=QT",
    "reference_source": "KB",
    "evaluation_cohort": "AI_RECOMMENDATION"
  },
  {
    "evaluation_id": "FPH-0140",
    "metadata_table": "EG2_DE",
    "metadata_variable": "QTC",
    "annotation_table": "12导联心电图明细",
    "annotation_variable": "QTc（ms）",
    "SDTM_Domain": "EG",
    "SDTM_Variable": "EGORRES/EGORRESU when EGTESTCD=QTC",
    "reference_source": "LLM",
    "evaluation_cohort": "AI_RECOMMENDATION"
  },
  {
    "evaluation_id": "FPH-0141",
    "metadata_table": "EG2_DE",
    "metadata_variable": "QTCF",
    "annotation_table": "12导联心电图明细",
    "annotation_variable": "QTcF(ms)",
    "SDTM_Domain": "EG",
    "SDTM_Variable": "EGORRES/EGORRESU when EGTESTCD=QTCF",
    "reference_source": "LLM",
    "evaluation_cohort": "AI_RECOMMENDATION"
  },
  {
    "evaluation_id": "FPH-0142",
    "metadata_table": "UCG",
    "metadata_variable": "UCGPERF",
    "annotation_table": "超声心动图",
    "annotation_variable": "是否进行超声心动图检查？",
    "SDTM_Domain": "CV",
    "SDTM_Variable": "CVSTAT",
    "reference_source": "KB",
    "evaluation_cohort": "KB_DISAGREE"
  },
  {
    "evaluation_id": "FPH-0143",
    "metadata_table": "UCG",
    "metadata_variable": "UCGDAT",
    "annotation_table": "超声心动图",
    "annotation_variable": "检查日期",
    "SDTM_Domain": "CV",
    "SDTM_Variable": "CVDTC",
    "reference_source": "KB",
    "evaluation_cohort": "KB_AGREE"
  },
  {
    "evaluation_id": "FPH-0144",
    "metadata_table": "UCG",
    "metadata_variable": "UCGORRES",
    "annotation_table": "超声心动图",
    "annotation_variable": "左室射血分数（%）",
    "SDTM_Domain": "CV",
    "SDTM_Variable": "CVORRES/CVORRESU when CVTESTCD=LVEF",
    "reference_source": "KB",
    "evaluation_cohort": "KB_DISAGREE"
  },
  {
    "evaluation_id": "FPH-0145",
    "metadata_table": "UCG",
    "metadata_variable": "UCGCLSI",
    "annotation_table": "超声心动图",
    "annotation_variable": "临床意义评价",
    "SDTM_Domain": "CV",
    "SDTM_Variable": "CVORRES when CVTESTCD=INTP",
    "reference_source": "KB",
    "evaluation_cohort": "KB_DISAGREE"
  },
  {
    "evaluation_id": "FPH-0146",
    "metadata_table": "UCG",
    "metadata_variable": "UCGDESC",
    "annotation_table": "超声心动图",
    "annotation_variable": "异常，请描述",
    "SDTM_Domain": "CV",
    "SDTM_Variable": "QVAL when QNAM=CVDESC",
    "reference_source": "KB",
    "evaluation_cohort": "KB_AGREE"
  },
  {
    "evaluation_id": "FPH-0147",
    "metadata_table": "RP",
    "metadata_variable": "RPPERF",
    "annotation_table": "妊娠检查",
    "annotation_variable": "是否进行妊娠检查？",
    "SDTM_Domain": "LB",
    "SDTM_Variable": "LBSTAT",
    "reference_source": "KB",
    "evaluation_cohort": "KB_DISAGREE"
  },
  {
    "evaluation_id": "FPH-0148",
    "metadata_table": "RP",
    "metadata_variable": "RPDAT",
    "annotation_table": "妊娠检查",
    "annotation_variable": "采样日期",
    "SDTM_Domain": "LB",
    "SDTM_Variable": "LBDTC",
    "reference_source": "KB",
    "evaluation_cohort": "KB_AGREE"
  },
  {
    "evaluation_id": "FPH-0149",
    "metadata_table": "RP",
    "metadata_variable": "RPTYP",
    "annotation_table": "妊娠检查",
    "annotation_variable": "样本类型",
    "SDTM_Domain": "LB",
    "SDTM_Variable": "LBSPEC",
    "reference_source": "LLM",
    "evaluation_cohort": "KB_AGREE"
  },
  {
    "evaluation_id": "FPH-0150",
    "metadata_table": "RP",
    "metadata_variable": "RPRES",
    "annotation_table": "妊娠检查",
    "annotation_variable": "检查结果",
    "SDTM_Domain": "LB",
    "SDTM_Variable": "LBORRES when LBTESTCD=HCG",
    "reference_source": "KB",
    "evaluation_cohort": "KB_AGREE"
  },
  {
    "evaluation_id": "FPH-0151",
    "metadata_table": "VIR",
    "metadata_variable": "VIRPERF",
    "annotation_table": "病毒学检查",
    "annotation_variable": "是否进行病毒学检查？",
    "SDTM_Domain": "LB",
    "SDTM_Variable": "LBSTAT",
    "reference_source": "KB",
    "evaluation_cohort": "KB_DISAGREE"
  },
  {
    "evaluation_id": "FPH-0152",
    "metadata_table": "VIR",
    "metadata_variable": "VIRDAT",
    "annotation_table": "病毒学检查",
    "annotation_variable": "采样日期",
    "SDTM_Domain": "LB",
    "SDTM_Variable": "LBDTC",
    "reference_source": "KB",
    "evaluation_cohort": "KB_DISAGREE"
  },
  {
    "evaluation_id": "FPH-0156",
    "metadata_table": "VIR_DE",
    "metadata_variable": "VIRTEST",
    "annotation_table": "病毒学检查明细",
    "annotation_variable": "检查项目",
    "SDTM_Domain": "LB",
    "SDTM_Variable": "LBTEST/QVAL when QNAM=LBORTEST",
    "reference_source": "KB",
    "evaluation_cohort": "AI_RECOMMENDATION"
  },
  {
    "evaluation_id": "FPH-0157",
    "metadata_table": "VIR_DE",
    "metadata_variable": "VIRRES",
    "annotation_table": "病毒学检查明细",
    "annotation_variable": "结果",
    "SDTM_Domain": "LB",
    "SDTM_Variable": "LBORRES",
    "reference_source": "KB",
    "evaluation_cohort": "AI_RECOMMENDATION"
  },
  {
    "evaluation_id": "FPH-0158",
    "metadata_table": "HBV",
    "metadata_variable": "HBVPERF",
    "annotation_table": "HBV DNA",
    "annotation_variable": "是否进行HBV DNA检查？",
    "SDTM_Domain": "LB",
    "SDTM_Variable": "LBSTAT",
    "reference_source": "KB",
    "evaluation_cohort": "KB_DISAGREE"
  },
  {
    "evaluation_id": "FPH-0159",
    "metadata_table": "HBV",
    "metadata_variable": "HBVDAT",
    "annotation_table": "HBV DNA",
    "annotation_variable": "采样日期",
    "SDTM_Domain": "LB",
    "SDTM_Variable": "LBDTC",
    "reference_source": "KB",
    "evaluation_cohort": "KB_DISAGREE"
  },
  {
    "evaluation_id": "FPH-0161",
    "metadata_table": "HBV",
    "metadata_variable": "HBVORRES",
    "annotation_table": "HBV DNA",
    "annotation_variable": "定量结果",
    "SDTM_Domain": "LB",
    "SDTM_Variable": "QVAL when QNAM=LBQURES when LBTESTCD=HBDNA",
    "reference_source": "LLM",
    "evaluation_cohort": "KB_DISAGREE"
  },
  {
    "evaluation_id": "FPH-0162",
    "metadata_table": "HBV",
    "metadata_variable": "HBVUNT",
    "annotation_table": "HBV DNA",
    "annotation_variable": "单位",
    "SDTM_Domain": "LB",
    "SDTM_Variable": "QVAL when QNAM=LBORUNIT",
    "reference_source": "KB",
    "evaluation_cohort": "KB_DISAGREE"
  },
  {
    "evaluation_id": "FPH-0163",
    "metadata_table": "HBV",
    "metadata_variable": "HBVUOTH",
    "annotation_table": "HBV DNA",
    "annotation_variable": "其他单位",
    "SDTM_Domain": "LB",
    "SDTM_Variable": "QVAL when QNAM=LBUOTH",
    "reference_source": "LLM",
    "evaluation_cohort": "KB_DISAGREE"
  },
  {
    "evaluation_id": "FPH-0164",
    "metadata_table": "HCV",
    "metadata_variable": "HCVPERF",
    "annotation_table": "HCV RNA",
    "annotation_variable": "是否进行HCV RNA检查？",
    "SDTM_Domain": "LB",
    "SDTM_Variable": "LBSTAT",
    "reference_source": "KB",
    "evaluation_cohort": "KB_DISAGREE"
  },
  {
    "evaluation_id": "FPH-0165",
    "metadata_table": "HCV",
    "metadata_variable": "HCVDAT",
    "annotation_table": "HCV RNA",
    "annotation_variable": "采样日期",
    "SDTM_Domain": "LB",
    "SDTM_Variable": "LBDTC",
    "reference_source": "KB",
    "evaluation_cohort": "KB_DISAGREE"
  },
  {
    "evaluation_id": "FPH-0166",
    "metadata_table": "HCV",
    "metadata_variable": "HCVRES",
    "annotation_table": "HCV RNA",
    "annotation_variable": "定性结果",
    "SDTM_Domain": "LB",
    "SDTM_Variable": "LBORRES when LBTESTCD=HCRNA",
    "reference_source": "KB",
    "evaluation_cohort": "AI_RECOMMENDATION"
  },
  {
    "evaluation_id": "FPH-0168",
    "metadata_table": "HCV",
    "metadata_variable": "HCVUNT",
    "annotation_table": "HCV RNA",
    "annotation_variable": "单位",
    "SDTM_Domain": "LB",
    "SDTM_Variable": "QVAL when QNAM=LBORUNIT",
    "reference_source": "KB",
    "evaluation_cohort": "KB_DISAGREE"
  },
  {
    "evaluation_id": "FPH-0169",
    "metadata_table": "HCV",
    "metadata_variable": "HCVUOTH",
    "annotation_table": "HCV RNA",
    "annotation_variable": "其他单位",
    "SDTM_Domain": "LB",
    "SDTM_Variable": "QVAL when QNAM=LBUOTH",
    "reference_source": "KB",
    "evaluation_cohort": "KB_DISAGREE"
  },
  {
    "evaluation_id": "FPH-0170",
    "metadata_table": "SNS",
    "metadata_variable": "SNSPERF",
    "annotation_table": "非梅毒螺旋体血清学检测",
    "annotation_variable": "是否进行非梅毒螺旋体血清学检测？",
    "SDTM_Domain": "LB",
    "SDTM_Variable": "LBSTAT",
    "reference_source": "LLM",
    "evaluation_cohort": "AI_RECOMMENDATION"
  },
  {
    "evaluation_id": "FPH-0171",
    "metadata_table": "SNS",
    "metadata_variable": "SNSDAT",
    "annotation_table": "非梅毒螺旋体血清学检测",
    "annotation_variable": "采样日期",
    "SDTM_Domain": "LB",
    "SDTM_Variable": "LBDTC",
    "reference_source": "KB",
    "evaluation_cohort": "AI_RECOMMENDATION"
  },
  {
    "evaluation_id": "FPH-0172",
    "metadata_table": "SNS",
    "metadata_variable": "SNSRES",
    "annotation_table": "非梅毒螺旋体血清学检测",
    "annotation_variable": "检测结果",
    "SDTM_Domain": "LB",
    "SDTM_Variable": "LBORRES when LBTESTCD=TPAB",
    "reference_source": "KB",
    "evaluation_cohort": "AI_RECOMMENDATION"
  },
  {
    "evaluation_id": "FPH-0173",
    "metadata_table": "MML",
    "metadata_variable": "MMPERF",
    "annotation_table": "MSI或MMR状态评估_本地实验室",
    "annotation_variable": "是否进行MSI或MMR状态评估？",
    "SDTM_Domain": "MI",
    "SDTM_Variable": "MISTAT",
    "reference_source": "LLM",
    "evaluation_cohort": "AI_RECOMMENDATION"
  },
  {
    "evaluation_id": "FPH-0174",
    "metadata_table": "MML",
    "metadata_variable": "MMREAS",
    "annotation_table": "MSI或MMR状态评估_本地实验室",
    "annotation_variable": "若否，请说明原因",
    "SDTM_Domain": "MI",
    "SDTM_Variable": "MIREASND",
    "reference_source": "LLM",
    "evaluation_cohort": "AI_RECOMMENDATION"
  },
  {
    "evaluation_id": "FPH-0175",
    "metadata_table": "MML",
    "metadata_variable": "MMETH",
    "annotation_table": "MSI或MMR状态评估_本地实验室",
    "annotation_variable": "评估方式",
    "SDTM_Domain": "MI",
    "SDTM_Variable": "MISPEC/MINAM",
    "reference_source": "LLM",
    "evaluation_cohort": "AI_RECOMMENDATION"
  },
  {
    "evaluation_id": "FPH-0176",
    "metadata_table": "MML",
    "metadata_variable": "MMBADAT",
    "annotation_table": "MSI或MMR状态评估_本地实验室",
    "annotation_variable": "采样日期（血样-本地实验室）",
    "SDTM_Domain": "MI",
    "SDTM_Variable": "MIDTC",
    "reference_source": "LLM",
    "evaluation_cohort": "AI_RECOMMENDATION"
  },
  {
    "evaluation_id": "FPH-0177",
    "metadata_table": "MML",
    "metadata_variable": "MMOADAT",
    "annotation_table": "MSI或MMR状态评估_本地实验室",
    "annotation_variable": "采样日期（组织-本地实验室）",
    "SDTM_Domain": "MI",
    "SDTM_Variable": "MIDTC",
    "reference_source": "LLM",
    "evaluation_cohort": "AI_RECOMMENDATION"
  },
  {
    "evaluation_id": "FPH-0178",
    "metadata_table": "MML",
    "metadata_variable": "MMLRES",
    "annotation_table": "MSI或MMR状态评估_本地实验室",
    "annotation_variable": "本地实验室评估结果",
    "SDTM_Domain": "MI",
    "SDTM_Variable": "MIORRES when MITESTCD=MSIMMR and MINAM=本地实验室",
    "reference_source": "LLM",
    "evaluation_cohort": "AI_RECOMMENDATION"
  },
  {
    "evaluation_id": "FPH-0179",
    "metadata_table": "MML",
    "metadata_variable": "MMMSI",
    "annotation_table": "MSI或MMR状态评估_本地实验室",
    "annotation_variable": "本地实验室评估结果为MSI-H时，请填写具体的基因检测结果",
    "SDTM_Domain": "MI",
    "SDTM_Variable": "MIORRES when MITESTCD=MSIHGEXM and MINAM=本地实验室",
    "reference_source": "LLM",
    "evaluation_cohort": "AI_RECOMMENDATION"
  },
  {
    "evaluation_id": "FPH-0180",
    "metadata_table": "MML",
    "metadata_variable": "MMPRE1",
    "annotation_table": "MSI或MMR状态评估_本地实验室",
    "annotation_variable": "本地实验室评估结果为dMMR时，MLH1蛋白的表达",
    "SDTM_Domain": "MI",
    "SDTM_Variable": "MIORRES when MITESTCD=MLH1 and MINAM=本地实验室",
    "reference_source": "LLM",
    "evaluation_cohort": "AI_RECOMMENDATION"
  },
  {
    "evaluation_id": "FPH-0181",
    "metadata_table": "MML",
    "metadata_variable": "MMP1OTH",
    "annotation_table": "MSI或MMR状态评估_本地实验室",
    "annotation_variable": "MLH1蛋白的表达选择“其他”，请说明",
    "SDTM_Domain": "MI",
    "SDTM_Variable": "QVAL when QNAM=MIRESOTH when MITESTCD=MLH1",
    "reference_source": "LLM",
    "evaluation_cohort": "AI_RECOMMENDATION"
  },
  {
    "evaluation_id": "FPH-0182",
    "metadata_table": "MML",
    "metadata_variable": "MMPRE2",
    "annotation_table": "MSI或MMR状态评估_本地实验室",
    "annotation_variable": "本地实验室评估结果为dMMR时，MSH2蛋白的表达",
    "SDTM_Domain": "MI",
    "SDTM_Variable": "MIORRES when MITESTCD=MSH2 and MINAM=本地实验室",
    "reference_source": "LLM",
    "evaluation_cohort": "AI_RECOMMENDATION"
  },
  {
    "evaluation_id": "FPH-0183",
    "metadata_table": "MML",
    "metadata_variable": "MMP2OTH",
    "annotation_table": "MSI或MMR状态评估_本地实验室",
    "annotation_variable": "MSH2蛋白的表达选择“其他”，请说明",
    "SDTM_Domain": "MI",
    "SDTM_Variable": "QVAL when QNAM=MIRESOTH when MITESTCD=MSH2",
    "reference_source": "LLM",
    "evaluation_cohort": "AI_RECOMMENDATION"
  },
  {
    "evaluation_id": "FPH-0184",
    "metadata_table": "MML",
    "metadata_variable": "MMPRE3",
    "annotation_table": "MSI或MMR状态评估_本地实验室",
    "annotation_variable": "本地实验室评估结果为dMMR时，MSH6蛋白的表达",
    "SDTM_Domain": "MI",
    "SDTM_Variable": "MIORRES when MITESTCD=MSH6 and MINAM=本地实验室",
    "reference_source": "LLM",
    "evaluation_cohort": "AI_RECOMMENDATION"
  },
  {
    "evaluation_id": "FPH-0185",
    "metadata_table": "MML",
    "metadata_variable": "MMP3OTH",
    "annotation_table": "MSI或MMR状态评估_本地实验室",
    "annotation_variable": "MSH6蛋白的表达选择“其他”，请说明",
    "SDTM_Domain": "MI",
    "SDTM_Variable": "QVAL when QNAM=MIRESOTH when MITESTCD=MSH6",
    "reference_source": "LLM",
    "evaluation_cohort": "AI_RECOMMENDATION"
  },
  {
    "evaluation_id": "FPH-0186",
    "metadata_table": "MML",
    "metadata_variable": "MMPRE4",
    "annotation_table": "MSI或MMR状态评估_本地实验室",
    "annotation_variable": "本地实验室评估结果为dMMR时，PMS2蛋白的表达",
    "SDTM_Domain": "MI",
    "SDTM_Variable": "MIORRES when MTESTCD=PMS2 and MINAM=本地实验室",
    "reference_source": "LLM",
    "evaluation_cohort": "AI_RECOMMENDATION"
  },
  {
    "evaluation_id": "FPH-0187",
    "metadata_table": "MML",
    "metadata_variable": "MMP4OTH",
    "annotation_table": "MSI或MMR状态评估_本地实验室",
    "annotation_variable": "PMS2蛋白的表达选择“其他”，请说明",
    "SDTM_Domain": "MI",
    "SDTM_Variable": "QVAL when QNAM=MIRESOTH when MTESTCD=PMS2",
    "reference_source": "LLM",
    "evaluation_cohort": "AI_RECOMMENDATION"
  },
  {
    "evaluation_id": "FPH-0188",
    "metadata_table": "MMC",
    "metadata_variable": "MMPERF",
    "annotation_table": "MSI或MMR状态评估_中心实验室",
    "annotation_variable": "是否进行MSI或MMR状态评估？",
    "SDTM_Domain": "MI",
    "SDTM_Variable": "MISTAT",
    "reference_source": "LLM",
    "evaluation_cohort": "AI_RECOMMENDATION"
  },
  {
    "evaluation_id": "FPH-0189",
    "metadata_table": "MMC",
    "metadata_variable": "MMREAS",
    "annotation_table": "MSI或MMR状态评估_中心实验室",
    "annotation_variable": "若否，请说明原因",
    "SDTM_Domain": "MI",
    "SDTM_Variable": "MIREASND",
    "reference_source": "LLM",
    "evaluation_cohort": "AI_RECOMMENDATION"
  },
  {
    "evaluation_id": "FPH-0190",
    "metadata_table": "MMC",
    "metadata_variable": "MMCETH",
    "annotation_table": "MSI或MMR状态评估_中心实验室",
    "annotation_variable": "评估方式",
    "SDTM_Domain": "MI",
    "SDTM_Variable": "MISPEC",
    "reference_source": "LLM",
    "evaluation_cohort": "AI_RECOMMENDATION"
  },
  {
    "evaluation_id": "FPH-0191",
    "metadata_table": "MMC",
    "metadata_variable": "MMBADAT",
    "annotation_table": "MSI或MMR状态评估_中心实验室",
    "annotation_variable": "采样日期（血样-中心实验室）",
    "SDTM_Domain": "MI",
    "SDTM_Variable": "MIDTC",
    "reference_source": "LLM",
    "evaluation_cohort": "AI_RECOMMENDATION"
  },
  {
    "evaluation_id": "FPH-0192",
    "metadata_table": "MMC",
    "metadata_variable": "MMOADAT",
    "annotation_table": "MSI或MMR状态评估_中心实验室",
    "annotation_variable": "采样日期（组织-中心实验室）",
    "SDTM_Domain": "MI",
    "SDTM_Variable": "MIDTC",
    "reference_source": "LLM",
    "evaluation_cohort": "AI_RECOMMENDATION"
  },
  {
    "evaluation_id": "FPH-0193",
    "metadata_table": "MMC",
    "metadata_variable": "MMLRES",
    "annotation_table": "MSI或MMR状态评估_中心实验室",
    "annotation_variable": "中心实验室评估结果",
    "SDTM_Domain": "MI",
    "SDTM_Variable": "MIORRES when MITEST=MSIMMR and MINAM= 中心实验室",
    "reference_source": "LLM",
    "evaluation_cohort": "AI_RECOMMENDATION"
  },
  {
    "evaluation_id": "FPH-0194",
    "metadata_table": "GF",
    "metadata_variable": "GFPERF",
    "annotation_table": "林奇综合征筛查",
    "annotation_variable": "是否进行林奇综合征基因检测",
    "SDTM_Domain": "MI",
    "SDTM_Variable": "MISTAT",
    "reference_source": "KB",
    "evaluation_cohort": "AI_RECOMMENDATION"
  },
  {
    "evaluation_id": "FPH-0195",
    "metadata_table": "GF",
    "metadata_variable": "GFREAS",
    "annotation_table": "林奇综合征筛查",
    "annotation_variable": "若否，请说明原因",
    "SDTM_Domain": "MI",
    "SDTM_Variable": "MIREASND",
    "reference_source": "KB",
    "evaluation_cohort": "AI_RECOMMENDATION"
  },
  {
    "evaluation_id": "FPH-0196",
    "metadata_table": "GF",
    "metadata_variable": "GFDAT",
    "annotation_table": "林奇综合征筛查",
    "annotation_variable": "采样日期",
    "SDTM_Domain": "MI",
    "SDTM_Variable": "MIDTC",
    "reference_source": "KB",
    "evaluation_cohort": "AI_RECOMMENDATION"
  },
  {
    "evaluation_id": "FPH-0197",
    "metadata_table": "GF",
    "metadata_variable": "GFRES",
    "annotation_table": "林奇综合征筛查",
    "annotation_variable": "中心实验室检测结果",
    "SDTM_Domain": "MI",
    "SDTM_Variable": "MIORRES when MITESTCD=LYSYNGE",
    "reference_source": "KB",
    "evaluation_cohort": "AI_RECOMMENDATION"
  },
  {
    "evaluation_id": "FPH-0198",
    "metadata_table": "GF",
    "metadata_variable": "GFDIA",
    "annotation_table": "林奇综合征筛查",
    "annotation_variable": "是否符合林奇综合征诊断",
    "SDTM_Domain": "MI",
    "SDTM_Variable": "QVAL when QNAM=MIGFDIA",
    "reference_source": "KB",
    "evaluation_cohort": "AI_RECOMMENDATION"
  },
  {
    "evaluation_id": "FPH-0199",
    "metadata_table": "GF",
    "metadata_variable": "GFCO",
    "annotation_table": "林奇综合征筛查",
    "annotation_variable": "备注",
    "SDTM_Domain": "MI",
    "SDTM_Variable": "QVAL when QNAM=MICOM",
    "reference_source": "KB",
    "evaluation_cohort": "AI_RECOMMENDATION"
  },
  {
    "evaluation_id": "FPH-0200",
    "metadata_table": "IC2",
    "metadata_variable": "ICYN",
    "annotation_table": "探索性研究知情同意",
    "annotation_variable": "是否签署探索性研究知情同意书？",
    "SDTM_Domain": "",
    "SDTM_Variable": "NOT SUBMITTED",
    "reference_source": "LLM",
    "evaluation_cohort": "AI_RECOMMENDATION"
  },
  {
    "evaluation_id": "FPH-0201",
    "metadata_table": "IC2",
    "metadata_variable": "RFICDAT",
    "annotation_table": "探索性研究知情同意",
    "annotation_variable": "签署探索性研究知情同意书日期",
    "SDTM_Domain": "DS",
    "SDTM_Variable": "DSSTDTC",
    "reference_source": "LLM",
    "evaluation_cohort": "AI_RECOMMENDATION"
  },
  {
    "evaluation_id": "FPH-0202",
    "metadata_table": "ERO",
    "metadata_variable": "EROTPT",
    "annotation_table": "探索性样本采集（肿瘤组织）",
    "annotation_variable": "采集时间点",
    "SDTM_Domain": "MI",
    "SDTM_Variable": "QVAL when QNAM=MITP",
    "reference_source": "LLM",
    "evaluation_cohort": "AI_RECOMMENDATION"
  },
  {
    "evaluation_id": "FPH-0203",
    "metadata_table": "ERO",
    "metadata_variable": "ERTOTH",
    "annotation_table": "探索性样本采集（肿瘤组织）",
    "annotation_variable": "其他采集时间点，请说明",
    "SDTM_Domain": "MI",
    "SDTM_Variable": "QVAL when QNAM=MITPOTH",
    "reference_source": "KB",
    "evaluation_cohort": "AI_RECOMMENDATION"
  },
  {
    "evaluation_id": "FPH-0204",
    "metadata_table": "ER1_DE",
    "metadata_variable": "ERTEST",
    "annotation_table": "探索性样本采集（肿瘤组织）明细",
    "annotation_variable": "检测项目",
    "SDTM_Domain": "MI",
    "SDTM_Variable": "MITEST/QVAL when QNAM=MIORTEST",
    "reference_source": "KB",
    "evaluation_cohort": "AI_RECOMMENDATION"
  },
  {
    "evaluation_id": "FPH-0205",
    "metadata_table": "ER1_DE",
    "metadata_variable": "ERDAT",
    "annotation_table": "探索性样本采集（肿瘤组织）明细",
    "annotation_variable": "采样日期",
    "SDTM_Domain": "MI",
    "SDTM_Variable": "MIDTC",
    "reference_source": "KB",
    "evaluation_cohort": "AI_RECOMMENDATION"
  },
  {
    "evaluation_id": "FPH-0206",
    "metadata_table": "ER1_DE",
    "metadata_variable": "ERCO",
    "annotation_table": "探索性样本采集（肿瘤组织）明细",
    "annotation_variable": "备注",
    "SDTM_Domain": "MI",
    "SDTM_Variable": "QVAL when QNAM=MICOM",
    "reference_source": "KB",
    "evaluation_cohort": "AI_RECOMMENDATION"
  },
  {
    "evaluation_id": "FPH-0207",
    "metadata_table": "ERB",
    "metadata_variable": "ERTPT",
    "annotation_table": "探索性样本采集（血液样本）",
    "annotation_variable": "采集时间点",
    "SDTM_Domain": "MI",
    "SDTM_Variable": "QVAL when QNAM=MITP",
    "reference_source": "KB",
    "evaluation_cohort": "AI_RECOMMENDATION"
  },
  {
    "evaluation_id": "FPH-0208",
    "metadata_table": "ERB",
    "metadata_variable": "ERTOTH",
    "annotation_table": "探索性样本采集（血液样本）",
    "annotation_variable": "其他采集时间点，请说明",
    "SDTM_Domain": "MI",
    "SDTM_Variable": "QVAL when QNAM=MITPOTH",
    "reference_source": "KB",
    "evaluation_cohort": "AI_RECOMMENDATION"
  },
  {
    "evaluation_id": "FPH-0209",
    "metadata_table": "ER2_DE",
    "metadata_variable": "ERTEST",
    "annotation_table": "探索性样本采集（血液样本）明细",
    "annotation_variable": "检测项目",
    "SDTM_Domain": "MI",
    "SDTM_Variable": "MITEST/QVAL when QNAM=MIORTEST",
    "reference_source": "KB",
    "evaluation_cohort": "AI_RECOMMENDATION"
  },
  {
    "evaluation_id": "FPH-0210",
    "metadata_table": "ER2_DE",
    "metadata_variable": "ERDAT",
    "annotation_table": "探索性样本采集（血液样本）明细",
    "annotation_variable": "采样日期",
    "SDTM_Domain": "MI",
    "SDTM_Variable": "MIDTC",
    "reference_source": "KB",
    "evaluation_cohort": "AI_RECOMMENDATION"
  },
  {
    "evaluation_id": "FPH-0211",
    "metadata_table": "ER2_DE",
    "metadata_variable": "ERCO",
    "annotation_table": "探索性样本采集（血液样本）明细",
    "annotation_variable": "备注",
    "SDTM_Domain": "MI",
    "SDTM_Variable": "QVAL when QNAM=MICOM",
    "reference_source": "KB",
    "evaluation_cohort": "AI_RECOMMENDATION"
  },
  {
    "evaluation_id": "FPH-0212",
    "metadata_table": "IE",
    "metadata_variable": "IEYN",
    "annotation_table": "入选/排除标准",
    "annotation_variable": "受试者是否符合所有的入选标准且不符合任何一条排除标准？",
    "SDTM_Domain": "",
    "SDTM_Variable": "NOT SUBMITTED",
    "reference_source": "KB",
    "evaluation_cohort": "AI_RECOMMENDATION"
  },
  {
    "evaluation_id": "FPH-0213",
    "metadata_table": "IE_DE",
    "metadata_variable": "IECAT",
    "annotation_table": "不符合的入选标准/符合的排除标准",
    "annotation_variable": "入排标准类型",
    "SDTM_Domain": "IE",
    "SDTM_Variable": "IECAT",
    "reference_source": "LLM",
    "evaluation_cohort": "AI_RECOMMENDATION"
  },
  {
    "evaluation_id": "FPH-0214",
    "metadata_table": "IE_DE",
    "metadata_variable": "IETESTCD",
    "annotation_table": "不符合的入选标准/符合的排除标准",
    "annotation_variable": "入选/排除标准编号",
    "SDTM_Domain": "IE",
    "SDTM_Variable": "IETESTCD",
    "reference_source": "LLM",
    "evaluation_cohort": "AI_RECOMMENDATION"
  },
  {
    "evaluation_id": "FPH-0215",
    "metadata_table": "ENROL",
    "metadata_variable": "BARADS",
    "annotation_table": "随机信息",
    "annotation_variable": "基线影像学危险度评估",
    "SDTM_Domain": "DM",
    "SDTM_Variable": "QVAL when QNAM=CRFBARAD",
    "reference_source": "LLM",
    "evaluation_cohort": "AI_RECOMMENDATION"
  },
  {
    "evaluation_id": "FPH-0216",
    "metadata_table": "ENROL",
    "metadata_variable": "THLOC",
    "annotation_table": "随机信息",
    "annotation_variable": "肿瘤原发部位",
    "SDTM_Domain": "DM",
    "SDTM_Variable": "QVAL when QNAM=CRFTHLOC",
    "reference_source": "KB",
    "evaluation_cohort": "AI_RECOMMENDATION"
  },
  {
    "evaluation_id": "FPH-0217",
    "metadata_table": "ENROL",
    "metadata_variable": "RANDYN",
    "annotation_table": "随机信息",
    "annotation_variable": "受试者是否随机？",
    "SDTM_Domain": "DS",
    "SDTM_Variable": "DSTERM",
    "reference_source": "KB",
    "evaluation_cohort": "AI_RECOMMENDATION"
  },
  {
    "evaluation_id": "FPH-0218",
    "metadata_table": "ENROL",
    "metadata_variable": "RANDDAT",
    "annotation_table": "随机信息",
    "annotation_variable": "随机日期",
    "SDTM_Domain": "DS",
    "SDTM_Variable": "DSSTDTC",
    "reference_source": "LLM",
    "evaluation_cohort": "AI_RECOMMENDATION"
  },
  {
    "evaluation_id": "FPH-0219",
    "metadata_table": "ENROL",
    "metadata_variable": "RAND_ID",
    "annotation_table": "随机信息",
    "annotation_variable": "随机号",
    "SDTM_Domain": "DS",
    "SDTM_Variable": "QVAL when QNAM=RANDNO",
    "reference_source": "LLM",
    "evaluation_cohort": "AI_RECOMMENDATION"
  },
  {
    "evaluation_id": "FPH-0220",
    "metadata_table": "ENROL",
    "metadata_variable": "ENRREAS",
    "annotation_table": "随机信息",
    "annotation_variable": "若否，未成功随机的主要原因",
    "SDTM_Domain": "DS",
    "SDTM_Variable": "DSTERM",
    "reference_source": "LLM",
    "evaluation_cohort": "AI_RECOMMENDATION"
  },
  {
    "evaluation_id": "FPH-0222",
    "metadata_table": "ENROL",
    "metadata_variable": "ENRPHASE",
    "annotation_table": "随机信息",
    "annotation_variable": "组别",
    "SDTM_Domain": "DM",
    "SDTM_Variable": "QVAL when QNAM=CRFTRGRP",
    "reference_source": "LLM",
    "evaluation_cohort": "AI_RECOMMENDATION"
  },
  {
    "evaluation_id": "FPH-0223",
    "metadata_table": "EX",
    "metadata_variable": "EXYN",
    "annotation_table": "QL1706用药情况",
    "annotation_variable": "是否给药？",
    "SDTM_Domain": "EC|EX",
    "SDTM_Variable": "ECOCCUR when ECTRT=QL1706|EXTRT",
    "reference_source": "KB",
    "evaluation_cohort": "AI_RECOMMENDATION"
  },
  {
    "evaluation_id": "FPH-0224",
    "metadata_table": "EX",
    "metadata_variable": "EXREAS",
    "annotation_table": "QL1706用药情况",
    "annotation_variable": "若否，请选择原因",
    "SDTM_Domain": "EC",
    "SDTM_Variable": "QVAL when QNAM=ECREASOC when ECMOOD=已执行",
    "reference_source": "KB",
    "evaluation_cohort": "AI_RECOMMENDATION"
  },
  {
    "evaluation_id": "FPH-0225",
    "metadata_table": "EX",
    "metadata_variable": "EXAENO",
    "annotation_table": "QL1706用药情况",
    "annotation_variable": "若为不良事件，请填写不良事件",
    "SDTM_Domain": "EC",
    "SDTM_Variable": "QVAL when QNAM=ECNDAENO when ECMOOD=已执行",
    "reference_source": "LLM",
    "evaluation_cohort": "AI_RECOMMENDATION"
  },
  {
    "evaluation_id": "FPH-0226",
    "metadata_table": "EX",
    "metadata_variable": "EXROTH",
    "annotation_table": "QL1706用药情况",
    "annotation_variable": "若为其他，请说明",
    "SDTM_Domain": "EC",
    "SDTM_Variable": "QVAL when QNAM=ECNDROTH when ECMOOD=已执行",
    "reference_source": "KB",
    "evaluation_cohort": "AI_RECOMMENDATION"
  },
  {
    "evaluation_id": "FPH-0227",
    "metadata_table": "EX",
    "metadata_variable": "EXDOSE",
    "annotation_table": "QL1706用药情况",
    "annotation_variable": "剂量水平（mg/kg）",
    "SDTM_Domain": "EC",
    "SDTM_Variable": "ECDOSE/ECDOSU when ECMOOD=预计",
    "reference_source": "LLM",
    "evaluation_cohort": "AI_RECOMMENDATION"
  },
  {
    "evaluation_id": "FPH-0228",
    "metadata_table": "EX",
    "metadata_variable": "EXDOSRGM",
    "annotation_table": "QL1706用药情况",
    "annotation_variable": "理论给药总剂量（mg）",
    "SDTM_Domain": "EC",
    "SDTM_Variable": "QVAL when QNAM=ECPDOS when ECMOOD=已执行",
    "reference_source": "LLM",
    "evaluation_cohort": "AI_RECOMMENDATION"
  },
  {
    "evaluation_id": "FPH-0229",
    "metadata_table": "EX",
    "metadata_variable": "EXDSTXT",
    "annotation_table": "QL1706用药情况",
    "annotation_variable": "实际给药总剂量（mg）",
    "SDTM_Domain": "EC|EX",
    "SDTM_Variable": "ECDOSE/ECDOSU when ECMOOD=已执行|EXDOSE/EXDOSU",
    "reference_source": "LLM",
    "evaluation_cohort": "AI_RECOMMENDATION"
  },
  {
    "evaluation_id": "FPH-0230",
    "metadata_table": "EX",
    "metadata_variable": "EXSTDAT",
    "annotation_table": "QL1706用药情况",
    "annotation_variable": "给药开始日期",
    "SDTM_Domain": "EC|EX",
    "SDTM_Variable": "ECSTDTC|EXSTDTC",
    "reference_source": "KB",
    "evaluation_cohort": "AI_RECOMMENDATION"
  },
  {
    "evaluation_id": "FPH-0231",
    "metadata_table": "EX",
    "metadata_variable": "EXSTTIM",
    "annotation_table": "QL1706用药情况",
    "annotation_variable": "给药开始时间(24小时制)",
    "SDTM_Domain": "EC|EX",
    "SDTM_Variable": "ECSTDTC when ECMOOD=已执行|EXSTDTC",
    "reference_source": "KB",
    "evaluation_cohort": "AI_RECOMMENDATION"
  },
  {
    "evaluation_id": "FPH-0232",
    "metadata_table": "EX",
    "metadata_variable": "EXENDAT",
    "annotation_table": "QL1706用药情况",
    "annotation_variable": "给药结束日期",
    "SDTM_Domain": "EC|EX",
    "SDTM_Variable": "ECENDTC|EXENDTC",
    "reference_source": "KB",
    "evaluation_cohort": "AI_RECOMMENDATION"
  },
  {
    "evaluation_id": "FPH-0233",
    "metadata_table": "EX",
    "metadata_variable": "EXENTIM",
    "annotation_table": "QL1706用药情况",
    "annotation_variable": "给药结束时间(24小时制)",
    "SDTM_Domain": "EC|EX",
    "SDTM_Variable": "ECENDTC when ECMOOD=已执行|EXENDTC",
    "reference_source": "KB",
    "evaluation_cohort": "AI_RECOMMENDATION"
  },
  {
    "evaluation_id": "FPH-0234",
    "metadata_table": "EX",
    "metadata_variable": "EXACN",
    "annotation_table": "QL1706用药情况",
    "annotation_variable": "对本次用药采取的措施",
    "SDTM_Domain": "EC",
    "SDTM_Variable": "QVAL when QNAM=ECACN when ECMOOD=已执行",
    "reference_source": "LLM",
    "evaluation_cohort": "AI_RECOMMENDATION"
  },
  {
    "evaluation_id": "FPH-0235",
    "metadata_table": "EX",
    "metadata_variable": "EXACNREA",
    "annotation_table": "QL1706用药情况",
    "annotation_variable": "对本次用药采取措施的原因",
    "SDTM_Domain": "EC",
    "SDTM_Variable": "QVAL when QNAM=ACNREAS when ECMOOD=已执行",
    "reference_source": "LLM",
    "evaluation_cohort": "AI_RECOMMENDATION"
  },
  {
    "evaluation_id": "FPH-0236",
    "metadata_table": "EX",
    "metadata_variable": "EXACAENO",
    "annotation_table": "QL1706用药情况",
    "annotation_variable": "若为不良事件，请填写不良事件",
    "SDTM_Domain": "EC",
    "SDTM_Variable": "QVAL when QNAM=ACNAENO when ECMOOD=已执行",
    "reference_source": "LLM",
    "evaluation_cohort": "AI_RECOMMENDATION"
  },
  {
    "evaluation_id": "FPH-0237",
    "metadata_table": "EX",
    "metadata_variable": "EXACNOTH",
    "annotation_table": "QL1706用药情况",
    "annotation_variable": "若为其他，请说明",
    "SDTM_Domain": "EC",
    "SDTM_Variable": "QVAL when QNAM=ACNROTH when ECMOOD=已执行",
    "reference_source": "LLM",
    "evaluation_cohort": "AI_RECOMMENDATION"
  },
  {
    "evaluation_id": "FPH-0238",
    "metadata_table": "EX1",
    "metadata_variable": "EXYN",
    "annotation_table": "奥沙利铂用药情况",
    "annotation_variable": "是否给药？",
    "SDTM_Domain": "EC|EX",
    "SDTM_Variable": "ECOCCUR when ECTRT=奥沙利铂|EXTRT",
    "reference_source": "KB",
    "evaluation_cohort": "AI_RECOMMENDATION"
  },
  {
    "evaluation_id": "FPH-0239",
    "metadata_table": "EX1",
    "metadata_variable": "EXREAS",
    "annotation_table": "奥沙利铂用药情况",
    "annotation_variable": "若否，请选择原因",
    "SDTM_Domain": "EC",
    "SDTM_Variable": "QVAL when QNAM=ECREASOC when ECMOOD=已执行",
    "reference_source": "KB",
    "evaluation_cohort": "AI_RECOMMENDATION"
  },
  {
    "evaluation_id": "FPH-0240",
    "metadata_table": "EX1",
    "metadata_variable": "EXAENO",
    "annotation_table": "奥沙利铂用药情况",
    "annotation_variable": "若为不良事件，请填写不良事件",
    "SDTM_Domain": "EC",
    "SDTM_Variable": "QVAL when QNAM=ECNDAENO when ECMOOD=已执行",
    "reference_source": "LLM",
    "evaluation_cohort": "AI_RECOMMENDATION"
  },
  {
    "evaluation_id": "FPH-0241",
    "metadata_table": "EX1",
    "metadata_variable": "EXROTH",
    "annotation_table": "奥沙利铂用药情况",
    "annotation_variable": "若为其他，请说明",
    "SDTM_Domain": "EC",
    "SDTM_Variable": "QVAL when QNAM=ECNDROTH when ECMOOD=已执行",
    "reference_source": "KB",
    "evaluation_cohort": "AI_RECOMMENDATION"
  },
  {
    "evaluation_id": "FPH-0242",
    "metadata_table": "EX1",
    "metadata_variable": "EX1DOSE",
    "annotation_table": "奥沙利铂用药情况",
    "annotation_variable": "剂量水平（mg/m^2）",
    "SDTM_Domain": "EC",
    "SDTM_Variable": "ECDOSE/ECDOSU when ECMOOD=预计",
    "reference_source": "LLM",
    "evaluation_cohort": "AI_RECOMMENDATION"
  },
  {
    "evaluation_id": "FPH-0243",
    "metadata_table": "EX1",
    "metadata_variable": "EXDOSOTH",
    "annotation_table": "奥沙利铂用药情况",
    "annotation_variable": "其他剂量水平（mg/m^2）",
    "SDTM_Domain": "EC",
    "SDTM_Variable": "ECDOSE/ECDOSU when ECMOOD=预计",
    "reference_source": "LLM",
    "evaluation_cohort": "AI_RECOMMENDATION"
  },
  {
    "evaluation_id": "FPH-0244",
    "metadata_table": "EX1",
    "metadata_variable": "EXDOSRGM",
    "annotation_table": "奥沙利铂用药情况",
    "annotation_variable": "理论给药总剂量（mg）",
    "SDTM_Domain": "EC",
    "SDTM_Variable": "QVAL when QNAM=ECPDOS when ECMOOD=已执行",
    "reference_source": "KB",
    "evaluation_cohort": "AI_RECOMMENDATION"
  },
  {
    "evaluation_id": "FPH-0245",
    "metadata_table": "EX1",
    "metadata_variable": "EXDSTXT",
    "annotation_table": "奥沙利铂用药情况",
    "annotation_variable": "实际给药总剂量（mg）",
    "SDTM_Domain": "EC|EX",
    "SDTM_Variable": "ECDOSE/ECDOSU when ECMOOD=已执行|EXDOSE/EXDOSU",
    "reference_source": "LLM",
    "evaluation_cohort": "AI_RECOMMENDATION"
  },
  {
    "evaluation_id": "FPH-0246",
    "metadata_table": "EX1",
    "metadata_variable": "EXSTDAT",
    "annotation_table": "奥沙利铂用药情况",
    "annotation_variable": "给药开始日期",
    "SDTM_Domain": "EC|EX",
    "SDTM_Variable": "ECSTDTC|EXSTDTC",
    "reference_source": "KB",
    "evaluation_cohort": "AI_RECOMMENDATION"
  },
  {
    "evaluation_id": "FPH-0247",
    "metadata_table": "EX1",
    "metadata_variable": "EXSTTIM",
    "annotation_table": "奥沙利铂用药情况",
    "annotation_variable": "给药开始时间(24小时制)",
    "SDTM_Domain": "EC|EX",
    "SDTM_Variable": "ECSTDTC when ECMOOD=已执行|EXSTDTC",
    "reference_source": "LLM",
    "evaluation_cohort": "AI_RECOMMENDATION"
  },
  {
    "evaluation_id": "FPH-0248",
    "metadata_table": "EX1",
    "metadata_variable": "EXENDAT",
    "annotation_table": "奥沙利铂用药情况",
    "annotation_variable": "给药结束日期",
    "SDTM_Domain": "EC|EX",
    "SDTM_Variable": "ECENDTC|EXENDTC",
    "reference_source": "KB",
    "evaluation_cohort": "AI_RECOMMENDATION"
  },
  {
    "evaluation_id": "FPH-0249",
    "metadata_table": "EX1",
    "metadata_variable": "EXENTIM",
    "annotation_table": "奥沙利铂用药情况",
    "annotation_variable": "给药结束时间(24小时制)",
    "SDTM_Domain": "EC|EX",
    "SDTM_Variable": "ECENDTC when ECMOOD=已执行|EXENDTC",
    "reference_source": "LLM",
    "evaluation_cohort": "AI_RECOMMENDATION"
  },
  {
    "evaluation_id": "FPH-0250",
    "metadata_table": "EX1",
    "metadata_variable": "EXACN",
    "annotation_table": "奥沙利铂用药情况",
    "annotation_variable": "对本次用药采取的措施",
    "SDTM_Domain": "EC",
    "SDTM_Variable": "QVAL when QNAM=ECACN when ECMOOD=已执行",
    "reference_source": "LLM",
    "evaluation_cohort": "AI_RECOMMENDATION"
  },
  {
    "evaluation_id": "FPH-0251",
    "metadata_table": "EX1",
    "metadata_variable": "EXACNREA",
    "annotation_table": "奥沙利铂用药情况",
    "annotation_variable": "对本次用药采取措施的原因",
    "SDTM_Domain": "EC",
    "SDTM_Variable": "QVAL when QNAM=ACNREAS when ECMOOD=已执行",
    "reference_source": "LLM",
    "evaluation_cohort": "AI_RECOMMENDATION"
  },
  {
    "evaluation_id": "FPH-0252",
    "metadata_table": "EX1",
    "metadata_variable": "EXACAENO",
    "annotation_table": "奥沙利铂用药情况",
    "annotation_variable": "若为不良事件，请填写不良事件",
    "SDTM_Domain": "EC",
    "SDTM_Variable": "QVAL when QNAM=ACNAENO when ECMOOD=已执行",
    "reference_source": "LLM",
    "evaluation_cohort": "AI_RECOMMENDATION"
  },
  {
    "evaluation_id": "FPH-0253",
    "metadata_table": "EX1",
    "metadata_variable": "EXACNOTH",
    "annotation_table": "奥沙利铂用药情况",
    "annotation_variable": "若为其他，请说明",
    "SDTM_Domain": "EC",
    "SDTM_Variable": "QVAL when QNAM=ACNROTH when ECMOOD=已执行",
    "reference_source": "LLM",
    "evaluation_cohort": "AI_RECOMMENDATION"
  },
  {
    "evaluation_id": "FPH-0254",
    "metadata_table": "EX2_DE",
    "metadata_variable": "EXSTDAT",
    "annotation_table": "卡培他滨用药情况明细",
    "annotation_variable": "给药开始日期",
    "SDTM_Domain": "EC|EX",
    "SDTM_Variable": "ECSTDTC|EXSTDTC",
    "reference_source": "KB",
    "evaluation_cohort": "AI_RECOMMENDATION"
  },
  {
    "evaluation_id": "FPH-0255",
    "metadata_table": "EX2_DE",
    "metadata_variable": "EXENDAT",
    "annotation_table": "卡培他滨用药情况明细",
    "annotation_variable": "给药结束日期",
    "SDTM_Domain": "EC|EX",
    "SDTM_Variable": "ECENDTC|EXENDTC",
    "reference_source": "KB",
    "evaluation_cohort": "AI_RECOMMENDATION"
  },
  {
    "evaluation_id": "FPH-0256",
    "metadata_table": "EX2_DE",
    "metadata_variable": "EX2DOSE",
    "annotation_table": "卡培他滨用药情况明细",
    "annotation_variable": "给药剂量 (mg/m^2)",
    "SDTM_Domain": "EC",
    "SDTM_Variable": "ECDOSE/ECDOSU when ECMOOD=预计",
    "reference_source": "LLM",
    "evaluation_cohort": "AI_RECOMMENDATION"
  },
  {
    "evaluation_id": "FPH-0257",
    "metadata_table": "EX2_DE",
    "metadata_variable": "EXDOSOTH",
    "annotation_table": "卡培他滨用药情况明细",
    "annotation_variable": "其他给药剂量(mg/m^2)",
    "SDTM_Domain": "EC",
    "SDTM_Variable": "ECDOSE/ECDOSU when ECMOOD=预计",
    "reference_source": "LLM",
    "evaluation_cohort": "AI_RECOMMENDATION"
  },
  {
    "evaluation_id": "FPH-0258",
    "metadata_table": "EX2_DE",
    "metadata_variable": "EXDOSRGM",
    "annotation_table": "卡培他滨用药情况明细",
    "annotation_variable": "理论单次给药剂量（mg）",
    "SDTM_Domain": "EC",
    "SDTM_Variable": "QVAL when QNAM=ECPDOS when ECMOOD=已执行",
    "reference_source": "KB",
    "evaluation_cohort": "AI_RECOMMENDATION"
  },
  {
    "evaluation_id": "FPH-0259",
    "metadata_table": "EX2_DE",
    "metadata_variable": "EXRGMFRQ",
    "annotation_table": "卡培他滨用药情况明细",
    "annotation_variable": "理论给药频率",
    "SDTM_Domain": "EC",
    "SDTM_Variable": "ECDOSFRQ when ECMOOD=预计",
    "reference_source": "LLM",
    "evaluation_cohort": "AI_RECOMMENDATION"
  },
  {
    "evaluation_id": "FPH-0260",
    "metadata_table": "EX2_DE",
    "metadata_variable": "EXRGMFRO",
    "annotation_table": "卡培他滨用药情况明细",
    "annotation_variable": "其他理论给药频率",
    "SDTM_Domain": "EC",
    "SDTM_Variable": "ECDOSFRQ when ECMOOD=预计",
    "reference_source": "LLM",
    "evaluation_cohort": "AI_RECOMMENDATION"
  },
  {
    "evaluation_id": "FPH-0261",
    "metadata_table": "EX2_DE",
    "metadata_variable": "EXDSTXT",
    "annotation_table": "卡培他滨用药情况明细",
    "annotation_variable": "实际单次给药剂量（mg）",
    "SDTM_Domain": "EC|EX",
    "SDTM_Variable": "ECDOSE/ECDOSU when ECMOOD=已执行|EXDOSE/EXDOSU",
    "reference_source": "LLM",
    "evaluation_cohort": "AI_RECOMMENDATION"
  },
  {
    "evaluation_id": "FPH-0262",
    "metadata_table": "EX2_DE",
    "metadata_variable": "EXDOSFRQ",
    "annotation_table": "卡培他滨用药情况明细",
    "annotation_variable": "实际给药频率",
    "SDTM_Domain": "EC",
    "SDTM_Variable": "ECDOSFRQ when ECMOOD=已执行",
    "reference_source": "LLM",
    "evaluation_cohort": "AI_RECOMMENDATION"
  },
  {
    "evaluation_id": "FPH-0263",
    "metadata_table": "EX2_DE",
    "metadata_variable": "EXDOSFRO",
    "annotation_table": "卡培他滨用药情况明细",
    "annotation_variable": "其他实际给药频率",
    "SDTM_Domain": "EC",
    "SDTM_Variable": "ECDOSFRQ when ECMOOD=已执行",
    "reference_source": "LLM",
    "evaluation_cohort": "AI_RECOMMENDATION"
  },
  {
    "evaluation_id": "FPH-0264",
    "metadata_table": "EX2_DE",
    "metadata_variable": "EXDOSADJ",
    "annotation_table": "卡培他滨用药情况明细",
    "annotation_variable": "是否剂量调整",
    "SDTM_Domain": "EC",
    "SDTM_Variable": "QVAL when QNAM=ADJYN when ECMOOD=预计",
    "reference_source": "LLM",
    "evaluation_cohort": "AI_RECOMMENDATION"
  },
  {
    "evaluation_id": "FPH-0265",
    "metadata_table": "EX2_DE",
    "metadata_variable": "EXADJ",
    "annotation_table": "卡培他滨用药情况明细",
    "annotation_variable": "剂量调整原因",
    "SDTM_Domain": "EC",
    "SDTM_Variable": "ECADJ when ECMOOD=已执行",
    "reference_source": "LLM",
    "evaluation_cohort": "AI_RECOMMENDATION"
  },
  {
    "evaluation_id": "FPH-0266",
    "metadata_table": "EX2_DE",
    "metadata_variable": "ADJAENO",
    "annotation_table": "卡培他滨用药情况明细",
    "annotation_variable": "若剂量调整原因为不良事件，请填写不良事件",
    "SDTM_Domain": "EC",
    "SDTM_Variable": "QVAL when QNAM=ADJAENO when ECMOOD=预计",
    "reference_source": "LLM",
    "evaluation_cohort": "AI_RECOMMENDATION"
  },
  {
    "evaluation_id": "FPH-0267",
    "metadata_table": "EX2_DE",
    "metadata_variable": "ADJROTH",
    "annotation_table": "卡培他滨用药情况明细",
    "annotation_variable": "若剂量调整原因为其他，请填写其他原因",
    "SDTM_Domain": "EC",
    "SDTM_Variable": "QVAL when QNAM=ADJROTH when ECMOOD=预计",
    "reference_source": "LLM",
    "evaluation_cohort": "AI_RECOMMENDATION"
  },
  {
    "evaluation_id": "FPH-0268",
    "metadata_table": "EX2_DE",
    "metadata_variable": "EXUKYN",
    "annotation_table": "卡培他滨用药情况明细",
    "annotation_variable": "是否有未知日期的漏服或多服",
    "SDTM_Domain": "EC",
    "SDTM_Variable": "QVAL when QNAM=ECUKYN when ECMOOD=已执行",
    "reference_source": "LLM",
    "evaluation_cohort": "AI_RECOMMENDATION"
  },
  {
    "evaluation_id": "FPH-0269",
    "metadata_table": "EX2_DE",
    "metadata_variable": "EXUKAMT",
    "annotation_table": "卡培他滨用药情况明细",
    "annotation_variable": "漏服或多服数量（mg）",
    "SDTM_Domain": "EC",
    "SDTM_Variable": "QVAL when QNAM=ECUKNUM when ECMOOD=已执行",
    "reference_source": "LLM",
    "evaluation_cohort": "AI_RECOMMENDATION"
  },
  {
    "evaluation_id": "FPH-0270",
    "metadata_table": "BE",
    "metadata_variable": "BEYN",
    "annotation_table": "术前评估",
    "annotation_variable": "是否进行术前评估？",
    "SDTM_Domain": "FA",
    "SDTM_Variable": "FAORRES when FATESTCD=BEYN",
    "reference_source": "KB",
    "evaluation_cohort": "AI_RECOMMENDATION"
  },
  {
    "evaluation_id": "FPH-0271",
    "metadata_table": "BE",
    "metadata_variable": "BEREAS",
    "annotation_table": "术前评估",
    "annotation_variable": "若否，请说明原因",
    "SDTM_Domain": "FA",
    "SDTM_Variable": "FAORRES when FATESTCD=BEREAS",
    "reference_source": "KB",
    "evaluation_cohort": "AI_RECOMMENDATION"
  },
  {
    "evaluation_id": "FPH-0272",
    "metadata_table": "BE",
    "metadata_variable": "BEDAT",
    "annotation_table": "术前评估",
    "annotation_variable": "评估日期",
    "SDTM_Domain": "FA",
    "SDTM_Variable": "FAORRES when FATESTCD=BEDTC",
    "reference_source": "KB",
    "evaluation_cohort": "AI_RECOMMENDATION"
  },
  {
    "evaluation_id": "FPH-0273",
    "metadata_table": "BE",
    "metadata_variable": "BECS",
    "annotation_table": "术前评估",
    "annotation_variable": "术前临床分期",
    "SDTM_Domain": "FA",
    "SDTM_Variable": "FAORRES when FATESTCD=BECLSTA",
    "reference_source": "KB",
    "evaluation_cohort": "AI_RECOMMENDATION"
  },
  {
    "evaluation_id": "FPH-0274",
    "metadata_table": "BE",
    "metadata_variable": "BECOTH",
    "annotation_table": "术前评估",
    "annotation_variable": "临床分期若为其他，请说明",
    "SDTM_Domain": "FA",
    "SDTM_Variable": "QVAL when QNAM=FAOROTH when FATESTCD=BECLSTA",
    "reference_source": "KB",
    "evaluation_cohort": "AI_RECOMMENDATION"
  },
  {
    "evaluation_id": "FPH-0275",
    "metadata_table": "BE",
    "metadata_variable": "BEAYN",
    "annotation_table": "术前评估",
    "annotation_variable": "肿瘤是否仍可切除？",
    "SDTM_Domain": "FA",
    "SDTM_Variable": "FAORRES when FATESTCD=BEAYN",
    "reference_source": "KB",
    "evaluation_cohort": "AI_RECOMMENDATION"
  },
  {
    "evaluation_id": "FPH-0276",
    "metadata_table": "BE",
    "metadata_variable": "BEAREAS",
    "annotation_table": "术前评估",
    "annotation_variable": "若否，请选择原因",
    "SDTM_Domain": "FA",
    "SDTM_Variable": "FAORRES when FATESTCD=BEAREAS",
    "reference_source": "KB",
    "evaluation_cohort": "AI_RECOMMENDATION"
  },
  {
    "evaluation_id": "FPH-0277",
    "metadata_table": "BE",
    "metadata_variable": "BETYN",
    "annotation_table": "术前评估",
    "annotation_variable": "是否有远处转移？",
    "SDTM_Domain": "FA",
    "SDTM_Variable": "FAORRES when FATESTCD=BETYN",
    "reference_source": "KB",
    "evaluation_cohort": "AI_RECOMMENDATION"
  },
  {
    "evaluation_id": "FPH-0278",
    "metadata_table": "BE",
    "metadata_variable": "BELOC",
    "annotation_table": "术前评估",
    "annotation_variable": "转移部位",
    "SDTM_Domain": "FA",
    "SDTM_Variable": "FAORRES when FATESTCD=BELOC",
    "reference_source": "KB",
    "evaluation_cohort": "AI_RECOMMENDATION"
  },
  {
    "evaluation_id": "FPH-0279",
    "metadata_table": "RST",
    "metadata_variable": "RSYN",
    "annotation_table": "根治性手术治疗",
    "annotation_variable": "是否进行根治性手术治疗？",
    "SDTM_Domain": "PR",
    "SDTM_Variable": "PROCCUR/PRTRT=根治性手术治疗",
    "reference_source": "KB",
    "evaluation_cohort": "AI_RECOMMENDATION"
  },
  {
    "evaluation_id": "FPH-0281",
    "metadata_table": "RST",
    "metadata_variable": "RSAENO",
    "annotation_table": "根治性手术治疗",
    "annotation_variable": "导致未进行手术的不良事件",
    "SDTM_Domain": "PR",
    "SDTM_Variable": "QVAL when QNAM=RSTAENO when PROCCUR=否",
    "reference_source": "LLM",
    "evaluation_cohort": "AI_RECOMMENDATION"
  },
  {
    "evaluation_id": "FPH-0282",
    "metadata_table": "RST",
    "metadata_variable": "RSROTH",
    "annotation_table": "根治性手术治疗",
    "annotation_variable": "原因若为其他，请说明",
    "SDTM_Domain": "PR",
    "SDTM_Variable": "QVAL when QNAM=RSTROTH when PROCCUR=否",
    "reference_source": "KB",
    "evaluation_cohort": "AI_RECOMMENDATION"
  },
  {
    "evaluation_id": "FPH-0283",
    "metadata_table": "RST",
    "metadata_variable": "RSLYN",
    "annotation_table": "根治性手术治疗",
    "annotation_variable": "根治性手术是否发生延迟？",
    "SDTM_Domain": "PR",
    "SDTM_Variable": "QVAL when QNAM=RSTLYN when PROCCUR=是",
    "reference_source": "KB",
    "evaluation_cohort": "AI_RECOMMENDATION"
  },
  {
    "evaluation_id": "FPH-0284",
    "metadata_table": "RST",
    "metadata_variable": "RSLREAS",
    "annotation_table": "根治性手术治疗",
    "annotation_variable": "如手术延迟，请选择原因",
    "SDTM_Domain": "PR",
    "SDTM_Variable": "QVAL when QNAM=RSTLREAS when PROCCUR=是",
    "reference_source": "KB",
    "evaluation_cohort": "AI_RECOMMENDATION"
  },
  {
    "evaluation_id": "FPH-0285",
    "metadata_table": "RST",
    "metadata_variable": "REAENO",
    "annotation_table": "根治性手术治疗",
    "annotation_variable": "导致手术延迟的不良事件",
    "SDTM_Domain": "PR",
    "SDTM_Variable": "QVAL when QNAM=RSTLAENO when PROCCUR=是",
    "reference_source": "KB",
    "evaluation_cohort": "AI_RECOMMENDATION"
  },
  {
    "evaluation_id": "FPH-0286",
    "metadata_table": "RST",
    "metadata_variable": "RSLROTH",
    "annotation_table": "根治性手术治疗",
    "annotation_variable": "原因若为其他，请说明",
    "SDTM_Domain": "PR",
    "SDTM_Variable": "QVAL when QNAM=RSTLROTH when PROCCUR=是",
    "reference_source": "KB",
    "evaluation_cohort": "AI_RECOMMENDATION"
  },
  {
    "evaluation_id": "FPH-0287",
    "metadata_table": "RST",
    "metadata_variable": "RSPRO",
    "annotation_table": "根治性手术治疗",
    "annotation_variable": "手术方案",
    "SDTM_Domain": "PR",
    "SDTM_Variable": "PRDOSRGM",
    "reference_source": "KB",
    "evaluation_cohort": "AI_RECOMMENDATION"
  },
  {
    "evaluation_id": "FPH-0288",
    "metadata_table": "RST",
    "metadata_variable": "RSLOC",
    "annotation_table": "根治性手术治疗",
    "annotation_variable": "手术部位",
    "SDTM_Domain": "PR",
    "SDTM_Variable": "PRLOC",
    "reference_source": "KB",
    "evaluation_cohort": "AI_RECOMMENDATION"
  },
  {
    "evaluation_id": "FPH-0289",
    "metadata_table": "RST",
    "metadata_variable": "RSDAT",
    "annotation_table": "根治性手术治疗",
    "annotation_variable": "手术日期",
    "SDTM_Domain": "PR",
    "SDTM_Variable": "PRSTDTC",
    "reference_source": "KB",
    "evaluation_cohort": "AI_RECOMMENDATION"
  },
  {
    "evaluation_id": "FPH-0290",
    "metadata_table": "RST",
    "metadata_variable": "RSABL",
    "annotation_table": "根治性手术治疗",
    "annotation_variable": "手术为哪种切除",
    "SDTM_Domain": "PR",
    "SDTM_Variable": "PRSCAT",
    "reference_source": "KB",
    "evaluation_cohort": "AI_RECOMMENDATION"
  },
  {
    "evaluation_id": "FPH-0291",
    "metadata_table": "TSC",
    "metadata_variable": "TSCPERF",
    "annotation_table": "术中原发灶及淋巴结组织样本收集",
    "annotation_variable": "术中是否收集肿瘤组织样本和淋巴结样本？",
    "SDTM_Domain": "PR",
    "SDTM_Variable": "QVAL when QNAM=TSCYN",
    "reference_source": "KB",
    "evaluation_cohort": "AI_RECOMMENDATION"
  },
  {
    "evaluation_id": "FPH-0292",
    "metadata_table": "TSC",
    "metadata_variable": "TSCREAS",
    "annotation_table": "术中原发灶及淋巴结组织样本收集",
    "annotation_variable": "若否，请说明原因",
    "SDTM_Domain": "PR",
    "SDTM_Variable": "QVAL when QNAM=TSCREAS",
    "reference_source": "KB",
    "evaluation_cohort": "AI_RECOMMENDATION"
  },
  {
    "evaluation_id": "FPH-0293",
    "metadata_table": "TSC",
    "metadata_variable": "TSCTYP",
    "annotation_table": "术中原发灶及淋巴结组织样本收集",
    "annotation_variable": "样本类型",
    "SDTM_Domain": "PR",
    "SDTM_Variable": "QVAL when QNAM=TSCTYP",
    "reference_source": "KB",
    "evaluation_cohort": "AI_RECOMMENDATION"
  },
  {
    "evaluation_id": "FPH-0294",
    "metadata_table": "TSC",
    "metadata_variable": "TSCDAT",
    "annotation_table": "术中原发灶及淋巴结组织样本收集",
    "annotation_variable": "采样日期",
    "SDTM_Domain": "PR",
    "SDTM_Variable": "QVAL when QNAM=TSCDTC",
    "reference_source": "KB",
    "evaluation_cohort": "AI_RECOMMENDATION"
  },
  {
    "evaluation_id": "FPH-0295",
    "metadata_table": "PS",
    "metadata_variable": "PSPERF",
    "annotation_table": "手术样本病理评估",
    "annotation_variable": "手术后研究中心是否进行样本病理评估？",
    "SDTM_Domain": "RS",
    "SDTM_Variable": "RSSTAT when RSSCAT=病理评估",
    "reference_source": "KB",
    "evaluation_cohort": "AI_RECOMMENDATION"
  },
  {
    "evaluation_id": "FPH-0296",
    "metadata_table": "PS",
    "metadata_variable": "PSREAS",
    "annotation_table": "手术样本病理评估",
    "annotation_variable": "若否，请说明原因",
    "SDTM_Domain": "RS",
    "SDTM_Variable": "RSREASND when RSSCAT=病理评估",
    "reference_source": "KB",
    "evaluation_cohort": "AI_RECOMMENDATION"
  },
  {
    "evaluation_id": "FPH-0297",
    "metadata_table": "PS",
    "metadata_variable": "PST",
    "annotation_table": "手术样本病理评估",
    "annotation_variable": "术后病理分期T",
    "SDTM_Domain": "RS",
    "SDTM_Variable": "RSORRES when RSTEST=是否达到pCR and RSCAT=病理评估",
    "reference_source": "KB",
    "evaluation_cohort": "AI_RECOMMENDATION"
  },
  {
    "evaluation_id": "FPH-0298",
    "metadata_table": "PS",
    "metadata_variable": "PSN",
    "annotation_table": "手术样本病理评估",
    "annotation_variable": "术后病理分期N",
    "SDTM_Domain": "RS",
    "SDTM_Variable": "RSORRES when RSTESTCD=PSTSTAGE and RSCAT=病理评估",
    "reference_source": "KB",
    "evaluation_cohort": "AI_RECOMMENDATION"
  },
  {
    "evaluation_id": "FPH-0299",
    "metadata_table": "PS",
    "metadata_variable": "PSPCR",
    "annotation_table": "手术样本病理评估",
    "annotation_variable": "是否达到pCR？",
    "SDTM_Domain": "RS",
    "SDTM_Variable": "RSORRES when RSTESTCD=PSNSTAGE and RSCAT=病理评估",
    "reference_source": "KB",
    "evaluation_cohort": "AI_RECOMMENDATION"
  },
  {
    "evaluation_id": "FPH-0300",
    "metadata_table": "PS",
    "metadata_variable": "PSPR",
    "annotation_table": "手术样本病理评估",
    "annotation_variable": "癌细胞占比（%）",
    "SDTM_Domain": "RS",
    "SDTM_Variable": "RSORRES when RSTEST=癌细胞占比（%） and RSCAT=病理评估",
    "reference_source": "KB",
    "evaluation_cohort": "AI_RECOMMENDATION"
  },
  {
    "evaluation_id": "FPH-0301",
    "metadata_table": "AO",
    "metadata_variable": "AOYN",
    "annotation_table": "辅助治疗方案",
    "annotation_variable": "是否接受术后辅助治疗",
    "SDTM_Domain": "DM",
    "SDTM_Variable": "QVAL when QNAM=AOYN",
    "reference_source": "KB",
    "evaluation_cohort": "AI_RECOMMENDATION"
  },
  {
    "evaluation_id": "FPH-0302",
    "metadata_table": "AO",
    "metadata_variable": "AOREAS",
    "annotation_table": "辅助治疗方案",
    "annotation_variable": "若否，请说明原因",
    "SDTM_Domain": "DM",
    "SDTM_Variable": "QVAL when QNAM=AOREAS",
    "reference_source": "KB",
    "evaluation_cohort": "AI_RECOMMENDATION"
  },
  {
    "evaluation_id": "FPH-0303",
    "metadata_table": "AO",
    "metadata_variable": "AOPR",
    "annotation_table": "辅助治疗方案",
    "annotation_variable": "辅助治疗方案选择",
    "SDTM_Domain": "DM",
    "SDTM_Variable": "QVAL when QNAM=AOPR",
    "reference_source": "KB",
    "evaluation_cohort": "AI_RECOMMENDATION"
  },
  {
    "evaluation_id": "FPH-0304",
    "metadata_table": "PC_DE",
    "metadata_variable": "PCTPT",
    "annotation_table": "PK血液样本采集明细表",
    "annotation_variable": "计划采集时间点",
    "SDTM_Domain": "PC",
    "SDTM_Variable": "PCTPT",
    "reference_source": "KB",
    "evaluation_cohort": "AI_RECOMMENDATION"
  },
  {
    "evaluation_id": "FPH-0305",
    "metadata_table": "PC_DE",
    "metadata_variable": "PCPERF",
    "annotation_table": "PK血液样本采集明细表",
    "annotation_variable": "是否采样",
    "SDTM_Domain": "PC",
    "SDTM_Variable": "PCSTAT",
    "reference_source": "KB",
    "evaluation_cohort": "AI_RECOMMENDATION"
  },
  {
    "evaluation_id": "FPH-0306",
    "metadata_table": "PC_DE",
    "metadata_variable": "PCDAT",
    "annotation_table": "PK血液样本采集明细表",
    "annotation_variable": "采样日期",
    "SDTM_Domain": "PC",
    "SDTM_Variable": "PCDTC",
    "reference_source": "KB",
    "evaluation_cohort": "AI_RECOMMENDATION"
  },
  {
    "evaluation_id": "FPH-0307",
    "metadata_table": "PC_DE",
    "metadata_variable": "PCTIM",
    "annotation_table": "PK血液样本采集明细表",
    "annotation_variable": "采样时间(24小时制)",
    "SDTM_Domain": "PC",
    "SDTM_Variable": "PCDTC",
    "reference_source": "KB",
    "evaluation_cohort": "AI_RECOMMENDATION"
  },
  {
    "evaluation_id": "FPH-0308",
    "metadata_table": "PC_UN",
    "metadata_variable": "PCTPT",
    "annotation_table": "PK血液样本采集-计划外",
    "annotation_variable": "计划外采集时间点",
    "SDTM_Domain": "PC",
    "SDTM_Variable": "PCTPT",
    "reference_source": "KB",
    "evaluation_cohort": "KB_DISAGREE"
  },
  {
    "evaluation_id": "FPH-0309",
    "metadata_table": "PC_UN",
    "metadata_variable": "PCDAT",
    "annotation_table": "PK血液样本采集-计划外",
    "annotation_variable": "采样日期",
    "SDTM_Domain": "PC",
    "SDTM_Variable": "PCDTC",
    "reference_source": "KB",
    "evaluation_cohort": "KB_AGREE"
  },
  {
    "evaluation_id": "FPH-0310",
    "metadata_table": "PC_UN",
    "metadata_variable": "PCTIM",
    "annotation_table": "PK血液样本采集-计划外",
    "annotation_variable": "采样时间(24小时制)",
    "SDTM_Domain": "PC",
    "SDTM_Variable": "PCDTC",
    "reference_source": "LLM",
    "evaluation_cohort": "AI_RECOMMENDATION"
  },
  {
    "evaluation_id": "FPH-0311",
    "metadata_table": "ADA_DE",
    "metadata_variable": "ADATPT",
    "annotation_table": "ADA血液样本采集明细表",
    "annotation_variable": "计划采集时间点",
    "SDTM_Domain": "IS",
    "SDTM_Variable": "ISTPT",
    "reference_source": "KB",
    "evaluation_cohort": "AI_RECOMMENDATION"
  },
  {
    "evaluation_id": "FPH-0312",
    "metadata_table": "ADA_DE",
    "metadata_variable": "ADAPERF",
    "annotation_table": "ADA血液样本采集明细表",
    "annotation_variable": "是否采样",
    "SDTM_Domain": "IS",
    "SDTM_Variable": "ISSTAT",
    "reference_source": "KB",
    "evaluation_cohort": "AI_RECOMMENDATION"
  },
  {
    "evaluation_id": "FPH-0313",
    "metadata_table": "ADA_DE",
    "metadata_variable": "ADADAT",
    "annotation_table": "ADA血液样本采集明细表",
    "annotation_variable": "采样日期",
    "SDTM_Domain": "IS",
    "SDTM_Variable": "ISDTC",
    "reference_source": "KB",
    "evaluation_cohort": "AI_RECOMMENDATION"
  },
  {
    "evaluation_id": "FPH-0314",
    "metadata_table": "ADA_DE",
    "metadata_variable": "ADATIM",
    "annotation_table": "ADA血液样本采集明细表",
    "annotation_variable": "采样时间(24小时制)",
    "SDTM_Domain": "IS",
    "SDTM_Variable": "ISDTC",
    "reference_source": "KB",
    "evaluation_cohort": "AI_RECOMMENDATION"
  },
  {
    "evaluation_id": "FPH-0315",
    "metadata_table": "ADA_UN",
    "metadata_variable": "ADATPT",
    "annotation_table": "ADA血液样本采集-计划外",
    "annotation_variable": "计划外采集时间点",
    "SDTM_Domain": "IS",
    "SDTM_Variable": "ISTPT",
    "reference_source": "LLM",
    "evaluation_cohort": "KB_DISAGREE"
  },
  {
    "evaluation_id": "FPH-0316",
    "metadata_table": "ADA_UN",
    "metadata_variable": "ADADAT",
    "annotation_table": "ADA血液样本采集-计划外",
    "annotation_variable": "采样日期",
    "SDTM_Domain": "IS",
    "SDTM_Variable": "ISDTC",
    "reference_source": "LLM",
    "evaluation_cohort": "KB_AGREE"
  },
  {
    "evaluation_id": "FPH-0317",
    "metadata_table": "ADA_UN",
    "metadata_variable": "ADATIM",
    "annotation_table": "ADA血液样本采集-计划外",
    "annotation_variable": "采样时间 (24小时制)",
    "SDTM_Domain": "IS",
    "SDTM_Variable": "ISDTC",
    "reference_source": "LLM",
    "evaluation_cohort": "AI_RECOMMENDATION"
  },
  {
    "evaluation_id": "FPH-0318",
    "metadata_table": "AEYN",
    "metadata_variable": "AEYN",
    "annotation_table": "不良事件问询页",
    "annotation_variable": "是否发生不良事件？",
    "SDTM_Domain": "XM",
    "SDTM_Variable": "XMORRES when XMTESTCD=AEYN",
    "reference_source": "KB",
    "evaluation_cohort": "KB_DISAGREE"
  },
  {
    "evaluation_id": "FPH-0319",
    "metadata_table": "AE",
    "metadata_variable": "AETERM",
    "annotation_table": "不良事件",
    "annotation_variable": "不良事件名称",
    "SDTM_Domain": "AE",
    "SDTM_Variable": "AETERM",
    "reference_source": "KB",
    "evaluation_cohort": "KB_AGREE"
  },
  {
    "evaluation_id": "FPH-0320",
    "metadata_table": "AE",
    "metadata_variable": "AESTDAT",
    "annotation_table": "不良事件",
    "annotation_variable": "开始日期",
    "SDTM_Domain": "AE",
    "SDTM_Variable": "AESTDTC",
    "reference_source": "KB",
    "evaluation_cohort": "KB_AGREE"
  },
  {
    "evaluation_id": "FPH-0321",
    "metadata_table": "AE",
    "metadata_variable": "AEPHASE",
    "annotation_table": "不良事件",
    "annotation_variable": "若AE开始日期等于首次给药日期，请填写发生阶段",
    "SDTM_Domain": "AE",
    "SDTM_Variable": "QVAL when QNAM=AEPRIOR",
    "reference_source": "LLM",
    "evaluation_cohort": "KB_AGREE"
  },
  {
    "evaluation_id": "FPH-0322",
    "metadata_table": "AE",
    "metadata_variable": "AEINREYN",
    "annotation_table": "不良事件",
    "annotation_variable": "是否为输液相关反应？",
    "SDTM_Domain": "AE",
    "SDTM_Variable": "QVAL when QNAM=AEINFRE",
    "reference_source": "LLM",
    "evaluation_cohort": "KB_AGREE"
  },
  {
    "evaluation_id": "FPH-0323",
    "metadata_table": "AE",
    "metadata_variable": "AEIRYN",
    "annotation_table": "不良事件",
    "annotation_variable": "是否为免疫相关不良事件（irAE）？",
    "SDTM_Domain": "AE",
    "SDTM_Variable": "QVAL when QNAM=AEIMRE",
    "reference_source": "KB",
    "evaluation_cohort": "KB_AGREE"
  },
  {
    "evaluation_id": "FPH-0324",
    "metadata_table": "AE",
    "metadata_variable": "AESERYN",
    "annotation_table": "不良事件",
    "annotation_variable": "是否为严重不良事件(SAE)？",
    "SDTM_Domain": "AE",
    "SDTM_Variable": "AESER",
    "reference_source": "KB",
    "evaluation_cohort": "KB_AGREE"
  },
  {
    "evaluation_id": "FPH-0325",
    "metadata_table": "AE",
    "metadata_variable": "AESDTH",
    "annotation_table": "不良事件",
    "annotation_variable": "SAE分类_导致死亡",
    "SDTM_Domain": "AE",
    "SDTM_Variable": "AESDTH",
    "reference_source": "LLM",
    "evaluation_cohort": "AI_RECOMMENDATION"
  },
  {
    "evaluation_id": "FPH-0326",
    "metadata_table": "AE",
    "metadata_variable": "AESLIFE",
    "annotation_table": "不良事件",
    "annotation_variable": "SAE分类_危及生命",
    "SDTM_Domain": "AE",
    "SDTM_Variable": "AESLIFE",
    "reference_source": "LLM",
    "evaluation_cohort": "AI_RECOMMENDATION"
  },
  {
    "evaluation_id": "FPH-0327",
    "metadata_table": "AE",
    "metadata_variable": "AESHOSP",
    "annotation_table": "不良事件",
    "annotation_variable": "SAE分类_导致住院或住院时间延长",
    "SDTM_Domain": "AE",
    "SDTM_Variable": "AESHOSP",
    "reference_source": "LLM",
    "evaluation_cohort": "AI_RECOMMENDATION"
  },
  {
    "evaluation_id": "FPH-0328",
    "metadata_table": "AE",
    "metadata_variable": "AESDISAB",
    "annotation_table": "不良事件",
    "annotation_variable": "SAE分类_导致永久或者严重的残疾或者功能丧失",
    "SDTM_Domain": "AE",
    "SDTM_Variable": "AESDISAB",
    "reference_source": "LLM",
    "evaluation_cohort": "AI_RECOMMENDATION"
  },
  {
    "evaluation_id": "FPH-0329",
    "metadata_table": "AE",
    "metadata_variable": "AESCONG",
    "annotation_table": "不良事件",
    "annotation_variable": "SAE分类_导致先天性异常或出生缺陷",
    "SDTM_Domain": "AE",
    "SDTM_Variable": "AESCONG",
    "reference_source": "LLM",
    "evaluation_cohort": "AI_RECOMMENDATION"
  },
  {
    "evaluation_id": "FPH-0330",
    "metadata_table": "AE",
    "metadata_variable": "AESMIE",
    "annotation_table": "不良事件",
    "annotation_variable": "SAE分类_其他重要医学事件",
    "SDTM_Domain": "AE",
    "SDTM_Variable": "AESMIE",
    "reference_source": "LLM",
    "evaluation_cohort": "AI_RECOMMENDATION"
  },
  {
    "evaluation_id": "FPH-0331",
    "metadata_table": "AE",
    "metadata_variable": "SAESTDAT",
    "annotation_table": "不良事件",
    "annotation_variable": "SAE开始日期",
    "SDTM_Domain": "AE",
    "SDTM_Variable": "QVAL when QNAM=SAESTDTC",
    "reference_source": "KB",
    "evaluation_cohort": "KB_AGREE"
  },
  {
    "evaluation_id": "FPH-0332",
    "metadata_table": "AE",
    "metadata_variable": "AEREL",
    "annotation_table": "不良事件",
    "annotation_variable": "与QL1706的关系",
    "SDTM_Domain": "AE",
    "SDTM_Variable": "QVAL when QNAM=AERELQL",
    "reference_source": "KB",
    "evaluation_cohort": "AI_RECOMMENDATION"
  },
  {
    "evaluation_id": "FPH-0333",
    "metadata_table": "AE",
    "metadata_variable": "AEREL1",
    "annotation_table": "不良事件",
    "annotation_variable": "与奥沙利铂的关系",
    "SDTM_Domain": "AE",
    "SDTM_Variable": "QVAL when QNAM=AERELOX",
    "reference_source": "KB",
    "evaluation_cohort": "AI_RECOMMENDATION"
  },
  {
    "evaluation_id": "FPH-0334",
    "metadata_table": "AE",
    "metadata_variable": "AEREL2",
    "annotation_table": "不良事件",
    "annotation_variable": "与卡培他滨的关系",
    "SDTM_Domain": "AE",
    "SDTM_Variable": "QVAL when QNAM=AERELCA",
    "reference_source": "KB",
    "evaluation_cohort": "AI_RECOMMENDATION"
  },
  {
    "evaluation_id": "FPH-0335",
    "metadata_table": "AE",
    "metadata_variable": "AEACN",
    "annotation_table": "不良事件",
    "annotation_variable": "对QL1706采取的措施",
    "SDTM_Domain": "AE",
    "SDTM_Variable": "QVAL when QNAM=AEACNQL",
    "reference_source": "KB",
    "evaluation_cohort": "AI_RECOMMENDATION"
  },
  {
    "evaluation_id": "FPH-0336",
    "metadata_table": "AE",
    "metadata_variable": "AEACN1",
    "annotation_table": "不良事件",
    "annotation_variable": "对奥沙利铂采取的措施",
    "SDTM_Domain": "AE",
    "SDTM_Variable": "QVAL when QNAM=AEACNOX",
    "reference_source": "KB",
    "evaluation_cohort": "AI_RECOMMENDATION"
  },
  {
    "evaluation_id": "FPH-0337",
    "metadata_table": "AE",
    "metadata_variable": "AEACN2",
    "annotation_table": "不良事件",
    "annotation_variable": "对卡培他滨采取的措施",
    "SDTM_Domain": "AE",
    "SDTM_Variable": "QVAL when QNAM=AEACNCA",
    "reference_source": "KB",
    "evaluation_cohort": "AI_RECOMMENDATION"
  },
  {
    "evaluation_id": "FPH-0338",
    "metadata_table": "AE",
    "metadata_variable": "AETRT",
    "annotation_table": "不良事件",
    "annotation_variable": "对不良事件采取的措施",
    "SDTM_Domain": "AE",
    "SDTM_Variable": "AEACNOTH",
    "reference_source": "KB",
    "evaluation_cohort": "KB_AGREE"
  },
  {
    "evaluation_id": "FPH-0339",
    "metadata_table": "AE",
    "metadata_variable": "AEOUT",
    "annotation_table": "不良事件",
    "annotation_variable": "转归",
    "SDTM_Domain": "AE",
    "SDTM_Variable": "AEOUT",
    "reference_source": "KB",
    "evaluation_cohort": "KB_AGREE"
  },
  {
    "evaluation_id": "FPH-0340",
    "metadata_table": "AE",
    "metadata_variable": "AEENDAT",
    "annotation_table": "不良事件",
    "annotation_variable": "结束日期",
    "SDTM_Domain": "AE",
    "SDTM_Variable": "AEENDTC",
    "reference_source": "KB",
    "evaluation_cohort": "KB_AGREE"
  },
  {
    "evaluation_id": "FPH-0341",
    "metadata_table": "AE_DE",
    "metadata_variable": "AESEVDAT",
    "annotation_table": "严重程度明细",
    "annotation_variable": "严重程度开始日期",
    "SDTM_Domain": "AE",
    "SDTM_Variable": "QVAL when QNAM=SEVDTC",
    "reference_source": "KB",
    "evaluation_cohort": "AI_RECOMMENDATION"
  },
  {
    "evaluation_id": "FPH-0342",
    "metadata_table": "AE_DE",
    "metadata_variable": "AETOXGR",
    "annotation_table": "严重程度明细",
    "annotation_variable": "严重程度",
    "SDTM_Domain": "AE",
    "SDTM_Variable": "AETOXGR",
    "reference_source": "LLM",
    "evaluation_cohort": "AI_RECOMMENDATION"
  },
  {
    "evaluation_id": "FPH-0343",
    "metadata_table": "CMYN",
    "metadata_variable": "CMYN",
    "annotation_table": "既往及合并用药问询页",
    "annotation_variable": "是否有既往及合并用药？",
    "SDTM_Domain": "XM",
    "SDTM_Variable": "XMORRES when XMTESTCD=CMYN",
    "reference_source": "KB",
    "evaluation_cohort": "KB_DISAGREE"
  },
  {
    "evaluation_id": "FPH-0344",
    "metadata_table": "CM",
    "metadata_variable": "CMTRT",
    "annotation_table": "既往及合并用药",
    "annotation_variable": "药物名称",
    "SDTM_Domain": "CM",
    "SDTM_Variable": "CMTRT",
    "reference_source": "KB",
    "evaluation_cohort": "KB_AGREE"
  },
  {
    "evaluation_id": "FPH-0345",
    "metadata_table": "CM",
    "metadata_variable": "CMSTDAT",
    "annotation_table": "既往及合并用药",
    "annotation_variable": "开始日期",
    "SDTM_Domain": "CM",
    "SDTM_Variable": "CMSTDTC",
    "reference_source": "KB",
    "evaluation_cohort": "KB_AGREE"
  },
  {
    "evaluation_id": "FPH-0346",
    "metadata_table": "CM",
    "metadata_variable": "CMONGO",
    "annotation_table": "既往及合并用药",
    "annotation_variable": "是否持续？",
    "SDTM_Domain": "CM",
    "SDTM_Variable": "CMENRF",
    "reference_source": "KB",
    "evaluation_cohort": "KB_DISAGREE"
  },
  {
    "evaluation_id": "FPH-0347",
    "metadata_table": "CM",
    "metadata_variable": "CMENDAT",
    "annotation_table": "既往及合并用药",
    "annotation_variable": "结束日期",
    "SDTM_Domain": "CM",
    "SDTM_Variable": "CMENDTC",
    "reference_source": "KB",
    "evaluation_cohort": "KB_AGREE"
  },
  {
    "evaluation_id": "FPH-0348",
    "metadata_table": "CM",
    "metadata_variable": "CMINDC",
    "annotation_table": "既往及合并用药",
    "annotation_variable": "用药原因",
    "SDTM_Domain": "CM",
    "SDTM_Variable": "CMINDC",
    "reference_source": "KB",
    "evaluation_cohort": "KB_AGREE"
  },
  {
    "evaluation_id": "FPH-0349",
    "metadata_table": "CM",
    "metadata_variable": "CMAENO",
    "annotation_table": "既往及合并用药",
    "annotation_variable": "用药原因为不良事件，请填写不良事件",
    "SDTM_Domain": "CM",
    "SDTM_Variable": "QVAL when QNAM=CMAENO",
    "reference_source": "LLM",
    "evaluation_cohort": "KB_AGREE"
  },
  {
    "evaluation_id": "FPH-0350",
    "metadata_table": "CM",
    "metadata_variable": "CMMHNO",
    "annotation_table": "既往及合并用药",
    "annotation_variable": "用药原因为既往及现病史，请填写病史",
    "SDTM_Domain": "CM",
    "SDTM_Variable": "QVAL when QNAM=CMMHNO",
    "reference_source": "KB",
    "evaluation_cohort": "KB_AGREE"
  },
  {
    "evaluation_id": "FPH-0351",
    "metadata_table": "CM",
    "metadata_variable": "CMINPL",
    "annotation_table": "既往及合并用药",
    "annotation_variable": "用药原因为预防用药，请描述",
    "SDTM_Domain": "CM",
    "SDTM_Variable": "QVAL when QNAM=CMINPL",
    "reference_source": "KB",
    "evaluation_cohort": "KB_AGREE"
  },
  {
    "evaluation_id": "FPH-0353",
    "metadata_table": "CM",
    "metadata_variable": "CMINCS",
    "annotation_table": "既往及合并用药",
    "annotation_variable": "用药原因为研究疾病相关症状，请描述",
    "SDTM_Domain": "CM",
    "SDTM_Variable": "QVAL when QNAM=CMINCS",
    "reference_source": "KB",
    "evaluation_cohort": "KB_AGREE"
  },
  {
    "evaluation_id": "FPH-0354",
    "metadata_table": "CM",
    "metadata_variable": "CMINOTH",
    "annotation_table": "既往及合并用药",
    "annotation_variable": "用药原因为其他，请描述",
    "SDTM_Domain": "CM",
    "SDTM_Variable": "QVAL when QNAM=CMINOTH",
    "reference_source": "KB",
    "evaluation_cohort": "KB_DISAGREE"
  },
  {
    "evaluation_id": "FPH-0355",
    "metadata_table": "CM",
    "metadata_variable": "CMDSTXT",
    "annotation_table": "既往及合并用药",
    "annotation_variable": "单次剂量",
    "SDTM_Domain": "CM",
    "SDTM_Variable": "CMDOSE/CMDOSTXT",
    "reference_source": "KB",
    "evaluation_cohort": "KB_AGREE"
  },
  {
    "evaluation_id": "FPH-0356",
    "metadata_table": "CM",
    "metadata_variable": "CMDOSU",
    "annotation_table": "既往及合并用药",
    "annotation_variable": "剂量单位",
    "SDTM_Domain": "CM",
    "SDTM_Variable": "CMDOSU",
    "reference_source": "KB",
    "evaluation_cohort": "KB_AGREE"
  },
  {
    "evaluation_id": "FPH-0357",
    "metadata_table": "CM",
    "metadata_variable": "CMDOSUO",
    "annotation_table": "既往及合并用药",
    "annotation_variable": "其他单位",
    "SDTM_Domain": "CM",
    "SDTM_Variable": "QVAL when QNAM=CMDOUOTH",
    "reference_source": "KB",
    "evaluation_cohort": "KB_DISAGREE"
  },
  {
    "evaluation_id": "FPH-0358",
    "metadata_table": "CM",
    "metadata_variable": "CMDOSFRM",
    "annotation_table": "既往及合并用药",
    "annotation_variable": "剂型",
    "SDTM_Domain": "CM",
    "SDTM_Variable": "CMDOSFRM",
    "reference_source": "KB",
    "evaluation_cohort": "KB_AGREE"
  },
  {
    "evaluation_id": "FPH-0359",
    "metadata_table": "CM",
    "metadata_variable": "CMFRMOTH",
    "annotation_table": "既往及合并用药",
    "annotation_variable": "其他剂型",
    "SDTM_Domain": "CM",
    "SDTM_Variable": "QVAL when QNAM=CMFRMOTH",
    "reference_source": "KB",
    "evaluation_cohort": "KB_DISAGREE"
  },
  {
    "evaluation_id": "FPH-0360",
    "metadata_table": "CM",
    "metadata_variable": "CMDOSFRQ",
    "annotation_table": "既往及合并用药",
    "annotation_variable": "给药频率",
    "SDTM_Domain": "CM",
    "SDTM_Variable": "CMDOSFRQ",
    "reference_source": "KB",
    "evaluation_cohort": "KB_AGREE"
  },
  {
    "evaluation_id": "FPH-0361",
    "metadata_table": "CM",
    "metadata_variable": "CMFRQOTH",
    "annotation_table": "既往及合并用药",
    "annotation_variable": "其他给药频率",
    "SDTM_Domain": "CM",
    "SDTM_Variable": "QVAL when QNAM=CMFRQOTH",
    "reference_source": "KB",
    "evaluation_cohort": "KB_DISAGREE"
  },
  {
    "evaluation_id": "FPH-0362",
    "metadata_table": "CM",
    "metadata_variable": "CMROUTE",
    "annotation_table": "既往及合并用药",
    "annotation_variable": "给药途径",
    "SDTM_Domain": "CM",
    "SDTM_Variable": "CMROUTE",
    "reference_source": "KB",
    "evaluation_cohort": "KB_AGREE"
  },
  {
    "evaluation_id": "FPH-0363",
    "metadata_table": "CM",
    "metadata_variable": "CMROUTEO",
    "annotation_table": "既往及合并用药",
    "annotation_variable": "其他给药途径",
    "SDTM_Domain": "CM",
    "SDTM_Variable": "QVAL when QNAM=CMROUOTH",
    "reference_source": "KB",
    "evaluation_cohort": "KB_DISAGREE"
  },
  {
    "evaluation_id": "FPH-0364",
    "metadata_table": "PRYN",
    "metadata_variable": "PRYN",
    "annotation_table": "既往及合并非药物治疗问询页",
    "annotation_variable": "是否有既往及合并非药物治疗？",
    "SDTM_Domain": "XM",
    "SDTM_Variable": "XMORRES when XMTESTCD=PRYN",
    "reference_source": "KB",
    "evaluation_cohort": "KB_DISAGREE"
  },
  {
    "evaluation_id": "FPH-0365",
    "metadata_table": "PR",
    "metadata_variable": "PRTRT",
    "annotation_table": "既往及合并非药物治疗",
    "annotation_variable": "非药物治疗名称",
    "SDTM_Domain": "PR",
    "SDTM_Variable": "PRTRT",
    "reference_source": "KB",
    "evaluation_cohort": "KB_AGREE"
  },
  {
    "evaluation_id": "FPH-0366",
    "metadata_table": "PR",
    "metadata_variable": "PRSTDAT",
    "annotation_table": "既往及合并非药物治疗",
    "annotation_variable": "开始日期",
    "SDTM_Domain": "PR",
    "SDTM_Variable": "PRSTDTC",
    "reference_source": "KB",
    "evaluation_cohort": "KB_AGREE"
  },
  {
    "evaluation_id": "FPH-0367",
    "metadata_table": "PR",
    "metadata_variable": "PRONGO",
    "annotation_table": "既往及合并非药物治疗",
    "annotation_variable": "是否持续？",
    "SDTM_Domain": "PR",
    "SDTM_Variable": "QVAL when QNAM=PRENRF",
    "reference_source": "KB",
    "evaluation_cohort": "KB_DISAGREE"
  },
  {
    "evaluation_id": "FPH-0368",
    "metadata_table": "PR",
    "metadata_variable": "PRENDAT",
    "annotation_table": "既往及合并非药物治疗",
    "annotation_variable": "结束日期",
    "SDTM_Domain": "PR",
    "SDTM_Variable": "PRENDTC",
    "reference_source": "KB",
    "evaluation_cohort": "KB_AGREE"
  },
  {
    "evaluation_id": "FPH-0369",
    "metadata_table": "PR",
    "metadata_variable": "PRINDC",
    "annotation_table": "既往及合并非药物治疗",
    "annotation_variable": "治疗原因",
    "SDTM_Domain": "PR",
    "SDTM_Variable": "PRINDC",
    "reference_source": "KB",
    "evaluation_cohort": "KB_AGREE"
  },
  {
    "evaluation_id": "FPH-0370",
    "metadata_table": "PR",
    "metadata_variable": "PRAENO",
    "annotation_table": "既往及合并非药物治疗",
    "annotation_variable": "治疗原因为不良事件，请填写不良事件",
    "SDTM_Domain": "PR",
    "SDTM_Variable": "QVAL when QNAM=PRAENO",
    "reference_source": "KB",
    "evaluation_cohort": "KB_AGREE"
  },
  {
    "evaluation_id": "FPH-0371",
    "metadata_table": "PR",
    "metadata_variable": "PRMHNO",
    "annotation_table": "既往及合并非药物治疗",
    "annotation_variable": "治疗原因为既往及现病史，请填写病史",
    "SDTM_Domain": "PR",
    "SDTM_Variable": "QVAL when QNAM=PRMHNO",
    "reference_source": "LLM",
    "evaluation_cohort": "KB_AGREE"
  },
  {
    "evaluation_id": "FPH-0373",
    "metadata_table": "PR",
    "metadata_variable": "PRINCS",
    "annotation_table": "既往及合并非药物治疗",
    "annotation_variable": "治疗原因为研究疾病相关症状，请描述",
    "SDTM_Domain": "PR",
    "SDTM_Variable": "QVAL when QNAM=PRINCS",
    "reference_source": "KB",
    "evaluation_cohort": "KB_AGREE"
  },
  {
    "evaluation_id": "FPH-0374",
    "metadata_table": "PR",
    "metadata_variable": "PRINOTH",
    "annotation_table": "既往及合并非药物治疗",
    "annotation_variable": "治疗原因为其他，请描述",
    "SDTM_Domain": "PR",
    "SDTM_Variable": "QVAL when QNAM=PRINOTH",
    "reference_source": "KB",
    "evaluation_cohort": "KB_DISAGREE"
  },
  {
    "evaluation_id": "FPH-0375",
    "metadata_table": "TU_TLB",
    "metadata_variable": "TUYN",
    "annotation_table": "靶病灶-基线",
    "annotation_variable": "是否有靶病灶？",
    "SDTM_Domain": "XM",
    "SDTM_Variable": "XMORRES when XMTESTCD=TLYN",
    "reference_source": "KB",
    "evaluation_cohort": "KB_DISAGREE"
  },
  {
    "evaluation_id": "FPH-0376",
    "metadata_table": "TU_TLB",
    "metadata_variable": "TUTOT",
    "annotation_table": "靶病灶-基线",
    "annotation_variable": "所有靶病灶直径总和（mm）",
    "SDTM_Domain": "TR",
    "SDTM_Variable": "TRORRES/TRORRESU when TRTESTCD=SUMDIAM",
    "reference_source": "KB",
    "evaluation_cohort": "KB_AGREE"
  },
  {
    "evaluation_id": "FPH-0377",
    "metadata_table": "TLB",
    "metadata_variable": "TULNKID",
    "annotation_table": "靶病灶明细",
    "annotation_variable": "病灶编号",
    "SDTM_Domain": "TU|TR",
    "SDTM_Variable": "TULNKID/TUSPID|TRLNKID/TRSPID",
    "reference_source": "KB",
    "evaluation_cohort": "AI_RECOMMENDATION"
  },
  {
    "evaluation_id": "FPH-0378",
    "metadata_table": "TLB",
    "metadata_variable": "TULOC",
    "annotation_table": "靶病灶明细",
    "annotation_variable": "病灶部位",
    "SDTM_Domain": "TU",
    "SDTM_Variable": "TULOC",
    "reference_source": "KB",
    "evaluation_cohort": "AI_RECOMMENDATION"
  },
  {
    "evaluation_id": "FPH-0379",
    "metadata_table": "TLB",
    "metadata_variable": "TULOCOTH",
    "annotation_table": "靶病灶明细",
    "annotation_variable": "其他部位",
    "SDTM_Domain": "TU",
    "SDTM_Variable": "QVAL when QNAM=TULOCOTH",
    "reference_source": "KB",
    "evaluation_cohort": "AI_RECOMMENDATION"
  },
  {
    "evaluation_id": "FPH-0380",
    "metadata_table": "TLB",
    "metadata_variable": "TUDESC",
    "annotation_table": "靶病灶明细",
    "annotation_variable": "病灶描述",
    "SDTM_Domain": "TR",
    "SDTM_Variable": "QVAL when QNAM=TRDESC",
    "reference_source": "KB",
    "evaluation_cohort": "AI_RECOMMENDATION"
  },
  {
    "evaluation_id": "FPH-0381",
    "metadata_table": "TLB",
    "metadata_variable": "TUDAT",
    "annotation_table": "靶病灶明细",
    "annotation_variable": "检查日期",
    "SDTM_Domain": "TU|TR",
    "SDTM_Variable": "TUDTC|TRDTC",
    "reference_source": "KB",
    "evaluation_cohort": "AI_RECOMMENDATION"
  },
  {
    "evaluation_id": "FPH-0382",
    "metadata_table": "TLB",
    "metadata_variable": "TUMETH",
    "annotation_table": "靶病灶明细",
    "annotation_variable": "检查方法",
    "SDTM_Domain": "TU|TR",
    "SDTM_Variable": "TUMETHOD|TRMETHOD",
    "reference_source": "KB",
    "evaluation_cohort": "AI_RECOMMENDATION"
  },
  {
    "evaluation_id": "FPH-0383",
    "metadata_table": "TLB",
    "metadata_variable": "TUMETOTH",
    "annotation_table": "靶病灶明细",
    "annotation_variable": "其他检查方法，请说明",
    "SDTM_Domain": "TU|TR",
    "SDTM_Variable": "QVAL when QNAM=TUMEOTH|QVAL when QNAM=TRMEOTH",
    "reference_source": "KB",
    "evaluation_cohort": "AI_RECOMMENDATION"
  },
  {
    "evaluation_id": "FPH-0384",
    "metadata_table": "TLB",
    "metadata_variable": "TUORRES",
    "annotation_table": "靶病灶明细",
    "annotation_variable": "直径（mm）（最长径/淋巴结病灶短径）",
    "SDTM_Domain": "TR",
    "SDTM_Variable": "TRORRES/TRORRESU when TRTESTCD=DIAMETER",
    "reference_source": "KB",
    "evaluation_cohort": "AI_RECOMMENDATION"
  },
  {
    "evaluation_id": "FPH-0385",
    "metadata_table": "TU_NTLB",
    "metadata_variable": "TUYN",
    "annotation_table": "非靶病灶-基线",
    "annotation_variable": "是否有非靶病灶？",
    "SDTM_Domain": "XM",
    "SDTM_Variable": "XMORRES when XMTESTCD=TUYN",
    "reference_source": "KB",
    "evaluation_cohort": "KB_DISAGREE"
  },
  {
    "evaluation_id": "FPH-0386",
    "metadata_table": "NTLB",
    "metadata_variable": "TUNTLKID",
    "annotation_table": "非靶病灶明细",
    "annotation_variable": "病灶编号",
    "SDTM_Domain": "TU|TR",
    "SDTM_Variable": "TULNKID/TUSPID|TRLNKID/TRSPID",
    "reference_source": "KB",
    "evaluation_cohort": "AI_RECOMMENDATION"
  },
  {
    "evaluation_id": "FPH-0387",
    "metadata_table": "NTLB",
    "metadata_variable": "TUNLOC",
    "annotation_table": "非靶病灶明细",
    "annotation_variable": "病灶部位",
    "SDTM_Domain": "TU",
    "SDTM_Variable": "TULOC",
    "reference_source": "KB",
    "evaluation_cohort": "AI_RECOMMENDATION"
  },
  {
    "evaluation_id": "FPH-0388",
    "metadata_table": "NTLB",
    "metadata_variable": "TULOCOTH",
    "annotation_table": "非靶病灶明细",
    "annotation_variable": "其他部位",
    "SDTM_Domain": "TU",
    "SDTM_Variable": "QVAL when QNAM=TULOCOTH",
    "reference_source": "KB",
    "evaluation_cohort": "AI_RECOMMENDATION"
  },
  {
    "evaluation_id": "FPH-0389",
    "metadata_table": "NTLB",
    "metadata_variable": "TUDESC",
    "annotation_table": "非靶病灶明细",
    "annotation_variable": "病灶描述",
    "SDTM_Domain": "TR",
    "SDTM_Variable": "QVAL when QNAM=TRDESC",
    "reference_source": "KB",
    "evaluation_cohort": "AI_RECOMMENDATION"
  },
  {
    "evaluation_id": "FPH-0390",
    "metadata_table": "NTLB",
    "metadata_variable": "TUDAT",
    "annotation_table": "非靶病灶明细",
    "annotation_variable": "检查日期",
    "SDTM_Domain": "TU|TR",
    "SDTM_Variable": "TUDTC|TRDTC",
    "reference_source": "KB",
    "evaluation_cohort": "AI_RECOMMENDATION"
  },
  {
    "evaluation_id": "FPH-0391",
    "metadata_table": "NTLB",
    "metadata_variable": "TUNMETH",
    "annotation_table": "非靶病灶明细",
    "annotation_variable": "检查方法",
    "SDTM_Domain": "TU|TR",
    "SDTM_Variable": "TUMETHOD|TRMETHOD",
    "reference_source": "KB",
    "evaluation_cohort": "AI_RECOMMENDATION"
  },
  {
    "evaluation_id": "FPH-0392",
    "metadata_table": "NTLB",
    "metadata_variable": "TUMETOTH",
    "annotation_table": "非靶病灶明细",
    "annotation_variable": "其他检查方法，请说明",
    "SDTM_Domain": "TU|TR",
    "SDTM_Variable": "QVAL when QNAM=TUMEOTH|QVAL when QNAM=TRMEOTH",
    "reference_source": "KB",
    "evaluation_cohort": "AI_RECOMMENDATION"
  },
  {
    "evaluation_id": "FPH-0393",
    "metadata_table": "TUCYC",
    "metadata_variable": "TUCYC",
    "annotation_table": "肿瘤评估周期",
    "annotation_variable": "评估周期",
    "SDTM_Domain": "RS",
    "SDTM_Variable": "RSLNKGRP/QVAL when QNAM=RSCYC",
    "reference_source": "LLM",
    "evaluation_cohort": "KB_DISAGREE"
  },
  {
    "evaluation_id": "FPH-0394",
    "metadata_table": "TUCYC",
    "metadata_variable": "TUYN",
    "annotation_table": "肿瘤评估周期",
    "annotation_variable": "是否进行肿瘤评估？",
    "SDTM_Domain": "RS",
    "SDTM_Variable": "RSSTAT when RSTESTCD=RSALL",
    "reference_source": "LLM",
    "evaluation_cohort": "AI_RECOMMENDATION"
  },
  {
    "evaluation_id": "FPH-0395",
    "metadata_table": "TUCYC",
    "metadata_variable": "TUREASND",
    "annotation_table": "肿瘤评估周期",
    "annotation_variable": "若否，请说明原因",
    "SDTM_Domain": "RS",
    "SDTM_Variable": "RSREASND",
    "reference_source": "LLM",
    "evaluation_cohort": "KB_DISAGREE"
  },
  {
    "evaluation_id": "FPH-0396",
    "metadata_table": "TU_TL",
    "metadata_variable": "TUCYC",
    "annotation_table": "靶病灶",
    "annotation_variable": "评估周期",
    "SDTM_Domain": "TR",
    "SDTM_Variable": "TRLNKGRP/VISIT/QVAL when QNAM=TRCYC",
    "reference_source": "KB",
    "evaluation_cohort": "KB_DISAGREE"
  },
  {
    "evaluation_id": "FPH-0397",
    "metadata_table": "TU_TL",
    "metadata_variable": "TUTOT",
    "annotation_table": "靶病灶",
    "annotation_variable": "所有靶病灶直径总和（mm）",
    "SDTM_Domain": "TR",
    "SDTM_Variable": "TRORRES/TRORRESU when TRTESTCD=SUMDIAM",
    "reference_source": "KB",
    "evaluation_cohort": "KB_AGREE"
  },
  {
    "evaluation_id": "FPH-0398",
    "metadata_table": "TL",
    "metadata_variable": "TULNKID",
    "annotation_table": "靶病灶明细",
    "annotation_variable": "病灶编号",
    "SDTM_Domain": "TR",
    "SDTM_Variable": "TRLNKID/TRSPID",
    "reference_source": "KB",
    "evaluation_cohort": "AI_RECOMMENDATION"
  },
  {
    "evaluation_id": "FPH-0399",
    "metadata_table": "TL",
    "metadata_variable": "TUDAT",
    "annotation_table": "靶病灶明细",
    "annotation_variable": "检查日期",
    "SDTM_Domain": "TR|RS",
    "SDTM_Variable": "TRDTC|RSDTC",
    "reference_source": "KB",
    "evaluation_cohort": "AI_RECOMMENDATION"
  },
  {
    "evaluation_id": "FPH-0400",
    "metadata_table": "TL",
    "metadata_variable": "TUMETH",
    "annotation_table": "靶病灶明细",
    "annotation_variable": "检查方法",
    "SDTM_Domain": "TR",
    "SDTM_Variable": "TRMETHOD",
    "reference_source": "KB",
    "evaluation_cohort": "AI_RECOMMENDATION"
  },
  {
    "evaluation_id": "FPH-0401",
    "metadata_table": "TL",
    "metadata_variable": "TUMETOTH",
    "annotation_table": "靶病灶明细",
    "annotation_variable": "其他检查方法，请说明",
    "SDTM_Domain": "TR",
    "SDTM_Variable": "QVAL when QNAM=TRMEOTH",
    "reference_source": "KB",
    "evaluation_cohort": "AI_RECOMMENDATION"
  },
  {
    "evaluation_id": "FPH-0402",
    "metadata_table": "TL",
    "metadata_variable": "TUST",
    "annotation_table": "靶病灶明细",
    "annotation_variable": "病灶状态",
    "SDTM_Domain": "TR",
    "SDTM_Variable": "TRORRES when TRTESTCD=TUMSTATE",
    "reference_source": "KB",
    "evaluation_cohort": "AI_RECOMMENDATION"
  },
  {
    "evaluation_id": "FPH-0403",
    "metadata_table": "TL",
    "metadata_variable": "TUORRES",
    "annotation_table": "靶病灶明细",
    "annotation_variable": "直径（mm）（最长径/淋巴结病灶短径）",
    "SDTM_Domain": "TR",
    "SDTM_Variable": "TRORRES/TRORRESU when TRTESTCD=DIAMETER",
    "reference_source": "KB",
    "evaluation_cohort": "AI_RECOMMENDATION"
  },
  {
    "evaluation_id": "FPH-0404",
    "metadata_table": "TU_NTL",
    "metadata_variable": "TUCYC",
    "annotation_table": "非靶病灶",
    "annotation_variable": "评估周期",
    "SDTM_Domain": "TR",
    "SDTM_Variable": "TRLNKGRP/VISIT/QVAL when QNAM=TRCYC",
    "reference_source": "KB",
    "evaluation_cohort": "KB_DISAGREE"
  },
  {
    "evaluation_id": "FPH-0405",
    "metadata_table": "NTL",
    "metadata_variable": "TUNTLKID",
    "annotation_table": "非靶病灶明细",
    "annotation_variable": "病灶编号",
    "SDTM_Domain": "TR",
    "SDTM_Variable": "TRLNKID/TRSPID",
    "reference_source": "KB",
    "evaluation_cohort": "AI_RECOMMENDATION"
  },
  {
    "evaluation_id": "FPH-0406",
    "metadata_table": "NTL",
    "metadata_variable": "TUDAT",
    "annotation_table": "非靶病灶明细",
    "annotation_variable": "检查日期",
    "SDTM_Domain": "TR|RS",
    "SDTM_Variable": "TRDTC|RSDTC",
    "reference_source": "KB",
    "evaluation_cohort": "AI_RECOMMENDATION"
  },
  {
    "evaluation_id": "FPH-0407",
    "metadata_table": "NTL",
    "metadata_variable": "TUNMETH",
    "annotation_table": "非靶病灶明细",
    "annotation_variable": "检查方法",
    "SDTM_Domain": "TR",
    "SDTM_Variable": "TRMETHOD",
    "reference_source": "KB",
    "evaluation_cohort": "AI_RECOMMENDATION"
  },
  {
    "evaluation_id": "FPH-0408",
    "metadata_table": "NTL",
    "metadata_variable": "TUMETOTH",
    "annotation_table": "非靶病灶明细",
    "annotation_variable": "其他检查方法，请说明",
    "SDTM_Domain": "TR",
    "SDTM_Variable": "QVAL when QNAM=TRMEOTH",
    "reference_source": "KB",
    "evaluation_cohort": "AI_RECOMMENDATION"
  },
  {
    "evaluation_id": "FPH-0409",
    "metadata_table": "NTL",
    "metadata_variable": "TUNST",
    "annotation_table": "非靶病灶明细",
    "annotation_variable": "病灶状态",
    "SDTM_Domain": "TR",
    "SDTM_Variable": "TRORRES when TRTESTCD=TUMSTATE",
    "reference_source": "KB",
    "evaluation_cohort": "AI_RECOMMENDATION"
  },
  {
    "evaluation_id": "FPH-0410",
    "metadata_table": "TU_NL1",
    "metadata_variable": "TUCYC",
    "annotation_table": "新病灶",
    "annotation_variable": "评估周期",
    "SDTM_Domain": "TU|TR",
    "SDTM_Variable": "QVAL when QNAM=TUCYC|TRLNKGRP/QVAL when QNAM=TRCYC",
    "reference_source": "KB",
    "evaluation_cohort": "KB_DISAGREE"
  },
  {
    "evaluation_id": "FPH-0411",
    "metadata_table": "NL1",
    "metadata_variable": "TUNLLKID",
    "annotation_table": "新病灶明细",
    "annotation_variable": "病灶编号",
    "SDTM_Domain": "TU|TR",
    "SDTM_Variable": "TULNKID/TUSPID|TRLNKID/TRSPID",
    "reference_source": "KB",
    "evaluation_cohort": "AI_RECOMMENDATION"
  },
  {
    "evaluation_id": "FPH-0412",
    "metadata_table": "NL1",
    "metadata_variable": "TUDAT",
    "annotation_table": "新病灶明细",
    "annotation_variable": "检查日期",
    "SDTM_Domain": "TU|TR|RS",
    "SDTM_Variable": "TUDTC|TRDTC|RSDTC",
    "reference_source": "KB",
    "evaluation_cohort": "AI_RECOMMENDATION"
  },
  {
    "evaluation_id": "FPH-0413",
    "metadata_table": "NL1",
    "metadata_variable": "TUNLOC",
    "annotation_table": "新病灶明细",
    "annotation_variable": "病灶部位",
    "SDTM_Domain": "TU",
    "SDTM_Variable": "TULOC",
    "reference_source": "KB",
    "evaluation_cohort": "AI_RECOMMENDATION"
  },
  {
    "evaluation_id": "FPH-0414",
    "metadata_table": "NL1",
    "metadata_variable": "TULOCOTH",
    "annotation_table": "新病灶明细",
    "annotation_variable": "其他部位",
    "SDTM_Domain": "TU",
    "SDTM_Variable": "QVAL when QNAM=TULOCOTH",
    "reference_source": "KB",
    "evaluation_cohort": "AI_RECOMMENDATION"
  },
  {
    "evaluation_id": "FPH-0415",
    "metadata_table": "NL1",
    "metadata_variable": "TUDESC",
    "annotation_table": "新病灶明细",
    "annotation_variable": "病灶描述",
    "SDTM_Domain": "TR",
    "SDTM_Variable": "QVAL when QNAM=TRDESC",
    "reference_source": "KB",
    "evaluation_cohort": "AI_RECOMMENDATION"
  },
  {
    "evaluation_id": "FPH-0416",
    "metadata_table": "NL1",
    "metadata_variable": "TUNMETH",
    "annotation_table": "新病灶明细",
    "annotation_variable": "检查方法",
    "SDTM_Domain": "TU|TR",
    "SDTM_Variable": "TUMETHOD|TRMETHOD",
    "reference_source": "LLM",
    "evaluation_cohort": "AI_RECOMMENDATION"
  },
  {
    "evaluation_id": "FPH-0417",
    "metadata_table": "NL1",
    "metadata_variable": "TUMETOTH",
    "annotation_table": "新病灶明细",
    "annotation_variable": "其他检查方法，请说明",
    "SDTM_Domain": "TU|TR",
    "SDTM_Variable": "QVAL when QNAM=TUMEOTH|QVAL when QNAM=TRMEOTH",
    "reference_source": "KB",
    "evaluation_cohort": "AI_RECOMMENDATION"
  },
  {
    "evaluation_id": "FPH-0418",
    "metadata_table": "RS",
    "metadata_variable": "RSCYC",
    "annotation_table": "总体疗效评估（RECIST 1.1）",
    "annotation_variable": "评估周期",
    "SDTM_Domain": "RS",
    "SDTM_Variable": "QVAL when QNAM=RSCYC/RSLNKGRP",
    "reference_source": "KB",
    "evaluation_cohort": "KB_DISAGREE"
  },
  {
    "evaluation_id": "FPH-0419",
    "metadata_table": "RS",
    "metadata_variable": "RSDAT",
    "annotation_table": "总体疗效评估（RECIST 1.1）",
    "annotation_variable": "评估日期",
    "SDTM_Domain": "RS",
    "SDTM_Variable": "QVAL when QNAM=RSORDTC",
    "reference_source": "KB",
    "evaluation_cohort": "KB_DISAGREE"
  },
  {
    "evaluation_id": "FPH-0420",
    "metadata_table": "RS",
    "metadata_variable": "RSTL",
    "annotation_table": "总体疗效评估（RECIST 1.1）",
    "annotation_variable": "靶病灶疗效评估",
    "SDTM_Domain": "RS",
    "SDTM_Variable": "RSORRES when RSTESTCD=TRGRESP",
    "reference_source": "KB",
    "evaluation_cohort": "KB_AGREE"
  },
  {
    "evaluation_id": "FPH-0421",
    "metadata_table": "RS",
    "metadata_variable": "RSNTL",
    "annotation_table": "总体疗效评估（RECIST 1.1）",
    "annotation_variable": "非靶病灶疗效评估",
    "SDTM_Domain": "RS",
    "SDTM_Variable": "RSORRES when RSTESTCD=NTRGRESP",
    "reference_source": "KB",
    "evaluation_cohort": "KB_AGREE"
  },
  {
    "evaluation_id": "FPH-0422",
    "metadata_table": "RS",
    "metadata_variable": "RSNL",
    "annotation_table": "总体疗效评估（RECIST 1.1）",
    "annotation_variable": "是否有新病灶",
    "SDTM_Domain": "RS",
    "SDTM_Variable": "RSORRES when RSTESTCD=NEWLPROG",
    "reference_source": "KB",
    "evaluation_cohort": "KB_DISAGREE"
  },
  {
    "evaluation_id": "FPH-0423",
    "metadata_table": "RS",
    "metadata_variable": "RSRES",
    "annotation_table": "总体疗效评估（RECIST 1.1）",
    "annotation_variable": "总体疗效评估",
    "SDTM_Domain": "RS",
    "SDTM_Variable": "RSORRES when RSTESTCD=OVRLRESP",
    "reference_source": "LLM",
    "evaluation_cohort": "KB_AGREE"
  },
  {
    "evaluation_id": "FPH-0424",
    "metadata_table": "MRI",
    "metadata_variable": "MRICYC",
    "annotation_table": "影像学检查",
    "annotation_variable": "检查周期",
    "SDTM_Domain": "MO",
    "SDTM_Variable": "QVAL when QNAM=MOCYC",
    "reference_source": "KB",
    "evaluation_cohort": "AI_RECOMMENDATION"
  },
  {
    "evaluation_id": "FPH-0425",
    "metadata_table": "MRI",
    "metadata_variable": "MRIPERF",
    "annotation_table": "影像学检查",
    "annotation_variable": "是否进行本周期检查",
    "SDTM_Domain": "MO",
    "SDTM_Variable": "MOSTAT",
    "reference_source": "KB",
    "evaluation_cohort": "AI_RECOMMENDATION"
  },
  {
    "evaluation_id": "FPH-0426",
    "metadata_table": "MRI",
    "metadata_variable": "MRIREAS",
    "annotation_table": "影像学检查",
    "annotation_variable": "若否，请说明原因",
    "SDTM_Domain": "MO",
    "SDTM_Variable": "MOREASND",
    "reference_source": "KB",
    "evaluation_cohort": "AI_RECOMMENDATION"
  },
  {
    "evaluation_id": "FPH-0427",
    "metadata_table": "MRI_DE",
    "metadata_variable": "MRIDAT",
    "annotation_table": "影像学检查明细",
    "annotation_variable": "检查日期",
    "SDTM_Domain": "MO",
    "SDTM_Variable": "MODTC",
    "reference_source": "KB",
    "evaluation_cohort": "AI_RECOMMENDATION"
  },
  {
    "evaluation_id": "FPH-0428",
    "metadata_table": "MRI_DE",
    "metadata_variable": "MRILOC",
    "annotation_table": "影像学检查明细",
    "annotation_variable": "检查部位",
    "SDTM_Domain": "MO",
    "SDTM_Variable": "MOLOC",
    "reference_source": "KB",
    "evaluation_cohort": "AI_RECOMMENDATION"
  },
  {
    "evaluation_id": "FPH-0429",
    "metadata_table": "MRI_DE",
    "metadata_variable": "MRILOTH",
    "annotation_table": "影像学检查明细",
    "annotation_variable": "其他检查部位，请说明",
    "SDTM_Domain": "MO",
    "SDTM_Variable": "QVAL when QNAM=MOLOCOTH",
    "reference_source": "KB",
    "evaluation_cohort": "AI_RECOMMENDATION"
  },
  {
    "evaluation_id": "FPH-0430",
    "metadata_table": "MRI_DE",
    "metadata_variable": "MRIMETH",
    "annotation_table": "影像学检查明细",
    "annotation_variable": "检查方法",
    "SDTM_Domain": "MO",
    "SDTM_Variable": "MOMETHOD",
    "reference_source": "KB",
    "evaluation_cohort": "AI_RECOMMENDATION"
  },
  {
    "evaluation_id": "FPH-0431",
    "metadata_table": "MRI_DE",
    "metadata_variable": "MRIMOTH",
    "annotation_table": "影像学检查明细",
    "annotation_variable": "其他检查方法，请说明",
    "SDTM_Domain": "MO",
    "SDTM_Variable": "QVAL when QNAM=MOMEOTH",
    "reference_source": "KB",
    "evaluation_cohort": "AI_RECOMMENDATION"
  },
  {
    "evaluation_id": "FPH-0432",
    "metadata_table": "MRI_DE",
    "metadata_variable": "MRITU",
    "annotation_table": "影像学检查明细",
    "annotation_variable": "是否存在病灶",
    "SDTM_Domain": "MO",
    "SDTM_Variable": "MOORRES when MOTESTCD=MOTUYN",
    "reference_source": "KB",
    "evaluation_cohort": "AI_RECOMMENDATION"
  },
  {
    "evaluation_id": "FPH-0433",
    "metadata_table": "MRI_DE",
    "metadata_variable": "MRILNKID",
    "annotation_table": "影像学检查明细",
    "annotation_variable": "病灶编号",
    "SDTM_Domain": "MO",
    "SDTM_Variable": "MOLNKID",
    "reference_source": "KB",
    "evaluation_cohort": "AI_RECOMMENDATION"
  },
  {
    "evaluation_id": "FPH-0434",
    "metadata_table": "RC",
    "metadata_variable": "RCYN",
    "annotation_table": "肿瘤复发",
    "annotation_variable": "是否存在肿瘤复发？",
    "SDTM_Domain": "",
    "SDTM_Variable": "NOT SUBMITTED",
    "reference_source": "KB",
    "evaluation_cohort": "AI_RECOMMENDATION"
  },
  {
    "evaluation_id": "FPH-0435",
    "metadata_table": "RC",
    "metadata_variable": "RCCYC",
    "annotation_table": "肿瘤复发",
    "annotation_variable": "评估周期",
    "SDTM_Domain": "TU|TR",
    "SDTM_Variable": "QVAL when QNAM=TUCYC|QVAL when QNAM=TRCYC",
    "reference_source": "KB",
    "evaluation_cohort": "AI_RECOMMENDATION"
  },
  {
    "evaluation_id": "FPH-0436",
    "metadata_table": "RC_DE",
    "metadata_variable": "RCLNKID",
    "annotation_table": "肿瘤复发明细",
    "annotation_variable": "病灶编号",
    "SDTM_Domain": "TU|TR",
    "SDTM_Variable": "TULNKID/TUSPID|TRLNKID/TRSPID",
    "reference_source": "KB",
    "evaluation_cohort": "AI_RECOMMENDATION"
  },
  {
    "evaluation_id": "FPH-0437",
    "metadata_table": "RC_DE",
    "metadata_variable": "RCLOC",
    "annotation_table": "肿瘤复发明细",
    "annotation_variable": "病灶部位",
    "SDTM_Domain": "TU",
    "SDTM_Variable": "TULOC",
    "reference_source": "KB",
    "evaluation_cohort": "AI_RECOMMENDATION"
  },
  {
    "evaluation_id": "FPH-0438",
    "metadata_table": "RC_DE",
    "metadata_variable": "RCLOCOTH",
    "annotation_table": "肿瘤复发明细",
    "annotation_variable": "其他部位，请说明",
    "SDTM_Domain": "TU",
    "SDTM_Variable": "QVAL when QNAM=TULOCOTH",
    "reference_source": "KB",
    "evaluation_cohort": "AI_RECOMMENDATION"
  },
  {
    "evaluation_id": "FPH-0439",
    "metadata_table": "RC_DE",
    "metadata_variable": "RCDESC",
    "annotation_table": "肿瘤复发明细",
    "annotation_variable": "病灶描述",
    "SDTM_Domain": "TR",
    "SDTM_Variable": "QVAL when QNAM=TRDESC",
    "reference_source": "KB",
    "evaluation_cohort": "AI_RECOMMENDATION"
  },
  {
    "evaluation_id": "FPH-0440",
    "metadata_table": "RC_DE",
    "metadata_variable": "RCMETH",
    "annotation_table": "肿瘤复发明细",
    "annotation_variable": "检查方法",
    "SDTM_Domain": "TU|TR",
    "SDTM_Variable": "TUMETHOD|TRMETHOD",
    "reference_source": "KB",
    "evaluation_cohort": "AI_RECOMMENDATION"
  },
  {
    "evaluation_id": "FPH-0441",
    "metadata_table": "RC_DE",
    "metadata_variable": "RCMETOTH",
    "annotation_table": "肿瘤复发明细",
    "annotation_variable": "其他检查方法，请说明",
    "SDTM_Domain": "TU|TR",
    "SDTM_Variable": "QVAL when QNAM=TUMEOTH|QVAL when QNAM=TRMEOTH",
    "reference_source": "KB",
    "evaluation_cohort": "AI_RECOMMENDATION"
  },
  {
    "evaluation_id": "FPH-0442",
    "metadata_table": "RC_DE",
    "metadata_variable": "RCDAT",
    "annotation_table": "肿瘤复发明细",
    "annotation_variable": "检查日期",
    "SDTM_Domain": "TU|TR",
    "SDTM_Variable": "TUDTC|TRDTC",
    "reference_source": "KB",
    "evaluation_cohort": "AI_RECOMMENDATION"
  },
  {
    "evaluation_id": "FPH-0443",
    "metadata_table": "RC_DE",
    "metadata_variable": "RCRYN",
    "annotation_table": "肿瘤复发明细",
    "annotation_variable": "是否病理证实复发",
    "SDTM_Domain": "TR",
    "SDTM_Variable": "QVAL when QNAM=TRRCRYN",
    "reference_source": "KB",
    "evaluation_cohort": "AI_RECOMMENDATION"
  },
  {
    "evaluation_id": "FPH-0444",
    "metadata_table": "RC_DE",
    "metadata_variable": "RCRTYP",
    "annotation_table": "肿瘤复发明细",
    "annotation_variable": "复发类型",
    "SDTM_Domain": "TR",
    "SDTM_Variable": "TRORRES when TRTESTCD=RCRTYP",
    "reference_source": "KB",
    "evaluation_cohort": "AI_RECOMMENDATION"
  },
  {
    "evaluation_id": "FPH-0446",
    "metadata_table": "PAE_DE",
    "metadata_variable": "PAEDAT",
    "annotation_table": "病理检查明细",
    "annotation_variable": "病理检查日期",
    "SDTM_Domain": "TR",
    "SDTM_Variable": "QVAL when QNAM=PAEDTC when TRTESTCD=RCRTYP",
    "reference_source": "KB",
    "evaluation_cohort": "AI_RECOMMENDATION"
  },
  {
    "evaluation_id": "FPH-0447",
    "metadata_table": "PAE_DE",
    "metadata_variable": "PAETYP",
    "annotation_table": "病理检查明细",
    "annotation_variable": "组织病理学分型",
    "SDTM_Domain": "TR",
    "SDTM_Variable": "QVAL when QNAM=PAETYP when TRTESTCD=RCRTYP",
    "reference_source": "KB",
    "evaluation_cohort": "AI_RECOMMENDATION"
  },
  {
    "evaluation_id": "FPH-0448",
    "metadata_table": "PAE_DE",
    "metadata_variable": "PAETOTH",
    "annotation_table": "病理检查明细",
    "annotation_variable": "组织病理学分型若为其他，请说明",
    "SDTM_Domain": "TR",
    "SDTM_Variable": "QVAL when QNAM=PAETOTH when TRTESTCD=RCRTYP",
    "reference_source": "KB",
    "evaluation_cohort": "AI_RECOMMENDATION"
  },
  {
    "evaluation_id": "FPH-0449",
    "metadata_table": "PAE_DE",
    "metadata_variable": "PAEHG",
    "annotation_table": "病理检查明细",
    "annotation_variable": "组织病理学分级",
    "SDTM_Domain": "TR",
    "SDTM_Variable": "QVAL when QNAM=PAEHG when TRTESTCD=RCRTYP",
    "reference_source": "KB",
    "evaluation_cohort": "AI_RECOMMENDATION"
  },
  {
    "evaluation_id": "FPH-0450",
    "metadata_table": "EOT1",
    "metadata_variable": "EOTDAT",
    "annotation_table": "治疗结束页（新辅助治疗阶段）",
    "annotation_variable": "治疗结束日期",
    "SDTM_Domain": "DS",
    "SDTM_Variable": "DSSTDTC",
    "reference_source": "LLM",
    "evaluation_cohort": "AI_RECOMMENDATION"
  },
  {
    "evaluation_id": "FPH-0451",
    "metadata_table": "EOT1",
    "metadata_variable": "EOTREAS",
    "annotation_table": "治疗结束页（新辅助治疗阶段）",
    "annotation_variable": "治疗结束原因",
    "SDTM_Domain": "DS",
    "SDTM_Variable": "DSTERM",
    "reference_source": "LLM",
    "evaluation_cohort": "AI_RECOMMENDATION"
  },
  {
    "evaluation_id": "FPH-0452",
    "metadata_table": "EOT1",
    "metadata_variable": "EOTAENO",
    "annotation_table": "治疗结束页（新辅助治疗阶段）",
    "annotation_variable": "若为不能耐受的毒性反应，请填写不良事件",
    "SDTM_Domain": "DS",
    "SDTM_Variable": "QVAL when QNAM=DSAENO",
    "reference_source": "LLM",
    "evaluation_cohort": "AI_RECOMMENDATION"
  },
  {
    "evaluation_id": "FPH-0453",
    "metadata_table": "EOT1",
    "metadata_variable": "EOTDIS",
    "annotation_table": "治疗结束页（新辅助治疗阶段）",
    "annotation_variable": "若为研究者评估受试者不适合继续参加研究，请详述",
    "SDTM_Domain": "DS",
    "SDTM_Variable": "QVAL when QNAM=DSREADIS",
    "reference_source": "LLM",
    "evaluation_cohort": "AI_RECOMMENDATION"
  },
  {
    "evaluation_id": "FPH-0454",
    "metadata_table": "EOT1",
    "metadata_variable": "EOTROTH",
    "annotation_table": "治疗结束页（新辅助治疗阶段）",
    "annotation_variable": "若为其他，请详述",
    "SDTM_Domain": "DS",
    "SDTM_Variable": "QVAL when QNAM=DSREAOTH",
    "reference_source": "LLM",
    "evaluation_cohort": "AI_RECOMMENDATION"
  },
  {
    "evaluation_id": "FPH-0455",
    "metadata_table": "EOT",
    "metadata_variable": "EOTDAT",
    "annotation_table": "治疗结束页",
    "annotation_variable": "治疗结束日期",
    "SDTM_Domain": "DS",
    "SDTM_Variable": "DSSTDTC",
    "reference_source": "KB",
    "evaluation_cohort": "KB_AGREE"
  },
  {
    "evaluation_id": "FPH-0456",
    "metadata_table": "EOT",
    "metadata_variable": "EOTREAS",
    "annotation_table": "治疗结束页",
    "annotation_variable": "治疗结束原因",
    "SDTM_Domain": "DS",
    "SDTM_Variable": "DSTERM",
    "reference_source": "KB",
    "evaluation_cohort": "KB_AGREE"
  },
  {
    "evaluation_id": "FPH-0457",
    "metadata_table": "EOT",
    "metadata_variable": "EOTAENO",
    "annotation_table": "治疗结束页",
    "annotation_variable": "若为不能耐受的毒性反应，请填写不良事件",
    "SDTM_Domain": "DS",
    "SDTM_Variable": "QVAL when QNAM=DSAENO",
    "reference_source": "LLM",
    "evaluation_cohort": "AI_RECOMMENDATION"
  },
  {
    "evaluation_id": "FPH-0458",
    "metadata_table": "EOT",
    "metadata_variable": "EOTDIS",
    "annotation_table": "治疗结束页",
    "annotation_variable": "若为研究者评估受试者不适合继续参加研究，请详述",
    "SDTM_Domain": "DS",
    "SDTM_Variable": "QVAL when QNAM=DSREADIS",
    "reference_source": "LLM",
    "evaluation_cohort": "AI_RECOMMENDATION"
  },
  {
    "evaluation_id": "FPH-0459",
    "metadata_table": "EOT",
    "metadata_variable": "EOTROTH",
    "annotation_table": "治疗结束页",
    "annotation_variable": "若为其他，请详述",
    "SDTM_Domain": "DS",
    "SDTM_Variable": "QVAL when QNAM=DSREAOTH",
    "reference_source": "LLM",
    "evaluation_cohort": "KB_AGREE"
  },
  {
    "evaluation_id": "FPH-0460",
    "metadata_table": "SF",
    "metadata_variable": "SFYN",
    "annotation_table": "生存随访",
    "annotation_variable": "是否进行生存随访？",
    "SDTM_Domain": "SS",
    "SDTM_Variable": "SSSTAT",
    "reference_source": "KB",
    "evaluation_cohort": "KB_DISAGREE"
  },
  {
    "evaluation_id": "FPH-0461",
    "metadata_table": "SF_DE",
    "metadata_variable": "SFDAT",
    "annotation_table": "生存随访明细",
    "annotation_variable": "随访日期",
    "SDTM_Domain": "SS",
    "SDTM_Variable": "SSDTC",
    "reference_source": "KB",
    "evaluation_cohort": "AI_RECOMMENDATION"
  },
  {
    "evaluation_id": "FPH-0462",
    "metadata_table": "SF_DE",
    "metadata_variable": "SFST",
    "annotation_table": "生存随访明细",
    "annotation_variable": "生存情况",
    "SDTM_Domain": "SS",
    "SDTM_Variable": "SSORRES when SSTESTCD=SURVSTAT",
    "reference_source": "KB",
    "evaluation_cohort": "AI_RECOMMENDATION"
  },
  {
    "evaluation_id": "FPH-0463",
    "metadata_table": "PRFYN",
    "metadata_variable": "CM3YN",
    "annotation_table": "后续抗肿瘤治疗问询页",
    "annotation_variable": "是否进行后续抗肿瘤药物治疗？",
    "SDTM_Domain": "",
    "SDTM_Variable": "NOT SUBMITTED",
    "reference_source": "LLM",
    "evaluation_cohort": "KB_AGREE"
  },
  {
    "evaluation_id": "FPH-0464",
    "metadata_table": "PRFYN",
    "metadata_variable": "CM4YN",
    "annotation_table": "后续抗肿瘤治疗问询页",
    "annotation_variable": "是否进行后续抗肿瘤中药治疗？",
    "SDTM_Domain": "",
    "SDTM_Variable": "NOT SUBMITTED",
    "reference_source": "LLM",
    "evaluation_cohort": "KB_AGREE"
  },
  {
    "evaluation_id": "FPH-0465",
    "metadata_table": "PRFYN",
    "metadata_variable": "PR4YN",
    "annotation_table": "后续抗肿瘤治疗问询页",
    "annotation_variable": "是否进行后续抗肿瘤放疗？",
    "SDTM_Domain": "",
    "SDTM_Variable": "NOT SUBMITTED",
    "reference_source": "LLM",
    "evaluation_cohort": "KB_AGREE"
  },
  {
    "evaluation_id": "FPH-0466",
    "metadata_table": "PRFYN",
    "metadata_variable": "PR5YN",
    "annotation_table": "后续抗肿瘤治疗问询页",
    "annotation_variable": "是否进行后续抗肿瘤手术治疗？",
    "SDTM_Domain": "",
    "SDTM_Variable": "NOT SUBMITTED",
    "reference_source": "LLM",
    "evaluation_cohort": "KB_AGREE"
  },
  {
    "evaluation_id": "FPH-0467",
    "metadata_table": "PRFYN",
    "metadata_variable": "PR6YN",
    "annotation_table": "后续抗肿瘤治疗问询页",
    "annotation_variable": "是否进行后续抗肿瘤其他治疗？",
    "SDTM_Domain": "",
    "SDTM_Variable": "NOT SUBMITTED",
    "reference_source": "LLM",
    "evaluation_cohort": "KB_AGREE"
  },
  {
    "evaluation_id": "FPH-0468",
    "metadata_table": "CM3",
    "metadata_variable": "CMREG",
    "annotation_table": "后续抗肿瘤药物治疗",
    "annotation_variable": "治疗方案名称",
    "SDTM_Domain": "CM",
    "SDTM_Variable": "CMDOSRGM",
    "reference_source": "KB",
    "evaluation_cohort": "KB_AGREE"
  },
  {
    "evaluation_id": "FPH-0469",
    "metadata_table": "CM3",
    "metadata_variable": "CMPUR",
    "annotation_table": "后续抗肿瘤药物治疗",
    "annotation_variable": "治疗目的",
    "SDTM_Domain": "CM",
    "SDTM_Variable": "CMINDC",
    "reference_source": "LLM",
    "evaluation_cohort": "KB_DISAGREE"
  },
  {
    "evaluation_id": "FPH-0470",
    "metadata_table": "CM3",
    "metadata_variable": "CMPUROTH",
    "annotation_table": "后续抗肿瘤药物治疗",
    "annotation_variable": "其他目的，请说明",
    "SDTM_Domain": "CM",
    "SDTM_Variable": "QVAL when QNAM=CMINOTH",
    "reference_source": "LLM",
    "evaluation_cohort": "KB_DISAGREE"
  },
  {
    "evaluation_id": "FPH-0471",
    "metadata_table": "CM3",
    "metadata_variable": "CMSTDAT",
    "annotation_table": "后续抗肿瘤药物治疗",
    "annotation_variable": "开始日期",
    "SDTM_Domain": "CM",
    "SDTM_Variable": "CMSTDTC",
    "reference_source": "KB",
    "evaluation_cohort": "KB_AGREE"
  },
  {
    "evaluation_id": "FPH-0472",
    "metadata_table": "CM3",
    "metadata_variable": "CMONGO",
    "annotation_table": "后续抗肿瘤药物治疗",
    "annotation_variable": "是否持续",
    "SDTM_Domain": "CM",
    "SDTM_Variable": "CMENRF",
    "reference_source": "KB",
    "evaluation_cohort": "AI_RECOMMENDATION"
  },
  {
    "evaluation_id": "FPH-0473",
    "metadata_table": "CM3",
    "metadata_variable": "CMENDAT",
    "annotation_table": "后续抗肿瘤药物治疗",
    "annotation_variable": "结束日期",
    "SDTM_Domain": "CM",
    "SDTM_Variable": "CMENDTC",
    "reference_source": "KB",
    "evaluation_cohort": "KB_AGREE"
  },
  {
    "evaluation_id": "FPH-0474",
    "metadata_table": "CM3",
    "metadata_variable": "CMREASND",
    "annotation_table": "后续抗肿瘤药物治疗",
    "annotation_variable": "治疗终止原因",
    "SDTM_Domain": "CM",
    "SDTM_Variable": "QVAL when QNAM=CMEOTREA",
    "reference_source": "LLM",
    "evaluation_cohort": "KB_DISAGREE"
  },
  {
    "evaluation_id": "FPH-0475",
    "metadata_table": "CM3",
    "metadata_variable": "CMREASO",
    "annotation_table": "后续抗肿瘤药物治疗",
    "annotation_variable": "其他，请详述",
    "SDTM_Domain": "CM",
    "SDTM_Variable": "QVAL when QNAM=CMEOTOTH",
    "reference_source": "LLM",
    "evaluation_cohort": "KB_DISAGREE"
  },
  {
    "evaluation_id": "FPH-0476",
    "metadata_table": "CM3",
    "metadata_variable": "CMBEA",
    "annotation_table": "后续抗肿瘤药物治疗",
    "annotation_variable": "最佳疗效评估",
    "SDTM_Domain": "CM",
    "SDTM_Variable": "QVAL when QNAM=CMBEA",
    "reference_source": "LLM",
    "evaluation_cohort": "KB_AGREE"
  },
  {
    "evaluation_id": "FPH-0477",
    "metadata_table": "CM3_DE",
    "metadata_variable": "CMTRT",
    "annotation_table": "后续抗肿瘤药物治疗明细",
    "annotation_variable": "药物名称",
    "SDTM_Domain": "CM",
    "SDTM_Variable": "CMTRT",
    "reference_source": "KB",
    "evaluation_cohort": "AI_RECOMMENDATION"
  },
  {
    "evaluation_id": "FPH-0478",
    "metadata_table": "CM3_DE",
    "metadata_variable": "CMDPER",
    "annotation_table": "后续抗肿瘤药物治疗明细",
    "annotation_variable": "疗程（周期）",
    "SDTM_Domain": "CM",
    "SDTM_Variable": "QVAL when QNAM=CMDPER",
    "reference_source": "LLM",
    "evaluation_cohort": "AI_RECOMMENDATION"
  },
  {
    "evaluation_id": "FPH-0479",
    "metadata_table": "CM3_DE",
    "metadata_variable": "CMDTYP",
    "annotation_table": "后续抗肿瘤药物治疗明细",
    "annotation_variable": "药物类别",
    "SDTM_Domain": "CM",
    "SDTM_Variable": "CMSCAT",
    "reference_source": "LLM",
    "evaluation_cohort": "AI_RECOMMENDATION"
  },
  {
    "evaluation_id": "FPH-0480",
    "metadata_table": "CM3_DE",
    "metadata_variable": "CMDHTYPO",
    "annotation_table": "后续抗肿瘤药物治疗明细",
    "annotation_variable": "药物类别为其他，请说明",
    "SDTM_Domain": "CM",
    "SDTM_Variable": "QVAL when QNAM=CMSCAOTH",
    "reference_source": "LLM",
    "evaluation_cohort": "AI_RECOMMENDATION"
  },
  {
    "evaluation_id": "FPH-0481",
    "metadata_table": "CM4",
    "metadata_variable": "CMTRT",
    "annotation_table": "后续抗肿瘤中药治疗",
    "annotation_variable": "药物名称",
    "SDTM_Domain": "CM",
    "SDTM_Variable": "CMTRT",
    "reference_source": "LLM",
    "evaluation_cohort": "AI_RECOMMENDATION"
  },
  {
    "evaluation_id": "FPH-0482",
    "metadata_table": "CM4",
    "metadata_variable": "CMSTDAT",
    "annotation_table": "后续抗肿瘤中药治疗",
    "annotation_variable": "开始日期",
    "SDTM_Domain": "CM",
    "SDTM_Variable": "CMSTDTC",
    "reference_source": "LLM",
    "evaluation_cohort": "AI_RECOMMENDATION"
  },
  {
    "evaluation_id": "FPH-0483",
    "metadata_table": "CM4",
    "metadata_variable": "CMONGO",
    "annotation_table": "后续抗肿瘤中药治疗",
    "annotation_variable": "是否持续？",
    "SDTM_Domain": "CM",
    "SDTM_Variable": "CMENRF",
    "reference_source": "LLM",
    "evaluation_cohort": "AI_RECOMMENDATION"
  },
  {
    "evaluation_id": "FPH-0484",
    "metadata_table": "CM4",
    "metadata_variable": "CMENDAT",
    "annotation_table": "后续抗肿瘤中药治疗",
    "annotation_variable": "结束日期",
    "SDTM_Domain": "CM",
    "SDTM_Variable": "CMENDTC",
    "reference_source": "LLM",
    "evaluation_cohort": "AI_RECOMMENDATION"
  },
  {
    "evaluation_id": "FPH-0485",
    "metadata_table": "PR4",
    "metadata_variable": "PRLOC",
    "annotation_table": "后续抗肿瘤放疗",
    "annotation_variable": "放疗部位",
    "SDTM_Domain": "PR",
    "SDTM_Variable": "PRLOC",
    "reference_source": "LLM",
    "evaluation_cohort": "KB_AGREE"
  },
  {
    "evaluation_id": "FPH-0486",
    "metadata_table": "PR4",
    "metadata_variable": "PRLOCOTH",
    "annotation_table": "后续抗肿瘤放疗",
    "annotation_variable": "其他部位，请说明",
    "SDTM_Domain": "PR",
    "SDTM_Variable": "QVAL when QNAM=PRLOCOTH",
    "reference_source": "LLM",
    "evaluation_cohort": "KB_AGREE"
  },
  {
    "evaluation_id": "FPH-0487",
    "metadata_table": "PR4",
    "metadata_variable": "PRDSTXT",
    "annotation_table": "后续抗肿瘤放疗",
    "annotation_variable": "放疗总剂量",
    "SDTM_Domain": "PR",
    "SDTM_Variable": "PRDOSE",
    "reference_source": "LLM",
    "evaluation_cohort": "KB_DISAGREE"
  },
  {
    "evaluation_id": "FPH-0488",
    "metadata_table": "PR4",
    "metadata_variable": "PRDOSU",
    "annotation_table": "后续抗肿瘤放疗",
    "annotation_variable": "放疗总剂量单位",
    "SDTM_Domain": "PR",
    "SDTM_Variable": "PRDOSU",
    "reference_source": "LLM",
    "evaluation_cohort": "KB_AGREE"
  },
  {
    "evaluation_id": "FPH-0489",
    "metadata_table": "PR4",
    "metadata_variable": "PRDOSUO",
    "annotation_table": "后续抗肿瘤放疗",
    "annotation_variable": "其他，请说明",
    "SDTM_Domain": "PR",
    "SDTM_Variable": "QVAL when QNAM=PRDOUOTH",
    "reference_source": "LLM",
    "evaluation_cohort": "KB_AGREE"
  },
  {
    "evaluation_id": "FPH-0490",
    "metadata_table": "PR4",
    "metadata_variable": "PRPUR",
    "annotation_table": "后续抗肿瘤放疗",
    "annotation_variable": "放疗目的",
    "SDTM_Domain": "PR",
    "SDTM_Variable": "PRINDC",
    "reference_source": "LLM",
    "evaluation_cohort": "KB_DISAGREE"
  },
  {
    "evaluation_id": "FPH-0491",
    "metadata_table": "PR4",
    "metadata_variable": "PRPUROTH",
    "annotation_table": "后续抗肿瘤放疗",
    "annotation_variable": "其他目的，请说明",
    "SDTM_Domain": "PR",
    "SDTM_Variable": "QVAL when QNAM=PRINOTH",
    "reference_source": "LLM",
    "evaluation_cohort": "KB_DISAGREE"
  },
  {
    "evaluation_id": "FPH-0492",
    "metadata_table": "PR4",
    "metadata_variable": "PRSTDAT",
    "annotation_table": "后续抗肿瘤放疗",
    "annotation_variable": "开始日期",
    "SDTM_Domain": "PR",
    "SDTM_Variable": "PRSTDTC",
    "reference_source": "LLM",
    "evaluation_cohort": "KB_AGREE"
  },
  {
    "evaluation_id": "FPH-0493",
    "metadata_table": "PR4",
    "metadata_variable": "PRONGO",
    "annotation_table": "后续抗肿瘤放疗",
    "annotation_variable": "是否持续",
    "SDTM_Domain": "PR",
    "SDTM_Variable": "QVAL when QNAM=PRENRF",
    "reference_source": "LLM",
    "evaluation_cohort": "AI_RECOMMENDATION"
  },
  {
    "evaluation_id": "FPH-0494",
    "metadata_table": "PR4",
    "metadata_variable": "PRENDAT",
    "annotation_table": "后续抗肿瘤放疗",
    "annotation_variable": "结束日期",
    "SDTM_Domain": "PR",
    "SDTM_Variable": "PRENDTC",
    "reference_source": "LLM",
    "evaluation_cohort": "KB_AGREE"
  },
  {
    "evaluation_id": "FPH-0495",
    "metadata_table": "PR5",
    "metadata_variable": "PRTRT",
    "annotation_table": "后续抗肿瘤手术治疗",
    "annotation_variable": "手术名称",
    "SDTM_Domain": "PR",
    "SDTM_Variable": "PRTRT",
    "reference_source": "KB",
    "evaluation_cohort": "KB_AGREE"
  },
  {
    "evaluation_id": "FPH-0496",
    "metadata_table": "PR5",
    "metadata_variable": "PRPUR",
    "annotation_table": "后续抗肿瘤手术治疗",
    "annotation_variable": "治疗目的",
    "SDTM_Domain": "PR",
    "SDTM_Variable": "PRINDC",
    "reference_source": "LLM",
    "evaluation_cohort": "AI_RECOMMENDATION"
  },
  {
    "evaluation_id": "FPH-0497",
    "metadata_table": "PR5",
    "metadata_variable": "PRPUROTH",
    "annotation_table": "后续抗肿瘤手术治疗",
    "annotation_variable": "其他治疗目的，请描述",
    "SDTM_Domain": "PR",
    "SDTM_Variable": "QVAL when QNAM=PRINOTH",
    "reference_source": "LLM",
    "evaluation_cohort": "KB_DISAGREE"
  },
  {
    "evaluation_id": "FPH-0498",
    "metadata_table": "PR5",
    "metadata_variable": "PRSTDAT",
    "annotation_table": "后续抗肿瘤手术治疗",
    "annotation_variable": "手术日期",
    "SDTM_Domain": "PR",
    "SDTM_Variable": "PRSTDTC",
    "reference_source": "KB",
    "evaluation_cohort": "KB_AGREE"
  },
  {
    "evaluation_id": "FPH-0499",
    "metadata_table": "PR6",
    "metadata_variable": "PRTRT",
    "annotation_table": "后续抗肿瘤其他治疗",
    "annotation_variable": "治疗方案",
    "SDTM_Domain": "PR",
    "SDTM_Variable": "PRTRT",
    "reference_source": "KB",
    "evaluation_cohort": "KB_AGREE"
  },
  {
    "evaluation_id": "FPH-0500",
    "metadata_table": "PR6",
    "metadata_variable": "PRSTDAT",
    "annotation_table": "后续抗肿瘤其他治疗",
    "annotation_variable": "开始日期",
    "SDTM_Domain": "PR",
    "SDTM_Variable": "PRSTDTC",
    "reference_source": "KB",
    "evaluation_cohort": "KB_AGREE"
  },
  {
    "evaluation_id": "FPH-0501",
    "metadata_table": "PR6",
    "metadata_variable": "PRONGO",
    "annotation_table": "后续抗肿瘤其他治疗",
    "annotation_variable": "是否持续？",
    "SDTM_Domain": "PR",
    "SDTM_Variable": "QVAL when QNAM=PRENRF",
    "reference_source": "LLM",
    "evaluation_cohort": "KB_DISAGREE"
  },
  {
    "evaluation_id": "FPH-0502",
    "metadata_table": "PR6",
    "metadata_variable": "PRENDAT",
    "annotation_table": "后续抗肿瘤其他治疗",
    "annotation_variable": "结束日期",
    "SDTM_Domain": "PR",
    "SDTM_Variable": "PRENDTC",
    "reference_source": "KB",
    "evaluation_cohort": "KB_AGREE"
  },
  {
    "evaluation_id": "FPH-0503",
    "metadata_table": "DD",
    "metadata_variable": "DTHDAT",
    "annotation_table": "死亡记录",
    "annotation_variable": "死亡日期",
    "SDTM_Domain": "DD|DM",
    "SDTM_Variable": "DDDTC|DTHDTC",
    "reference_source": "KB",
    "evaluation_cohort": "KB_DISAGREE"
  },
  {
    "evaluation_id": "FPH-0504",
    "metadata_table": "DD",
    "metadata_variable": "DDREAS",
    "annotation_table": "死亡记录",
    "annotation_variable": "死亡的主要原因",
    "SDTM_Domain": "DD",
    "SDTM_Variable": "DDORRES when DDTESTCD=PRCDTH",
    "reference_source": "KB",
    "evaluation_cohort": "KB_AGREE"
  },
  {
    "evaluation_id": "FPH-0505",
    "metadata_table": "DD",
    "metadata_variable": "DDROTH",
    "annotation_table": "死亡记录",
    "annotation_variable": "其他死亡原因，请描述",
    "SDTM_Domain": "DD",
    "SDTM_Variable": "QVAL when QNAM=DDREAOTH",
    "reference_source": "KB",
    "evaluation_cohort": "KB_AGREE"
  },
  {
    "evaluation_id": "FPH-0506",
    "metadata_table": "DS",
    "metadata_variable": "DSDAT",
    "annotation_table": "研究结束页",
    "annotation_variable": "研究结束日期",
    "SDTM_Domain": "DS",
    "SDTM_Variable": "DSSTDTC",
    "reference_source": "KB",
    "evaluation_cohort": "KB_AGREE"
  },
  {
    "evaluation_id": "FPH-0507",
    "metadata_table": "DS",
    "metadata_variable": "DSREAS",
    "annotation_table": "研究结束页",
    "annotation_variable": "研究结束原因",
    "SDTM_Domain": "DS",
    "SDTM_Variable": "DSTERM",
    "reference_source": "KB",
    "evaluation_cohort": "KB_AGREE"
  },
  {
    "evaluation_id": "FPH-0508",
    "metadata_table": "DS",
    "metadata_variable": "DSROTH",
    "annotation_table": "研究结束页",
    "annotation_variable": "若为其他，请详述",
    "SDTM_Domain": "DS",
    "SDTM_Variable": "QVAL when QNAM=DSREAOTH",
    "reference_source": "KB",
    "evaluation_cohort": "KB_AGREE"
  },
  {
    "evaluation_id": "FPH-0509",
    "metadata_table": "DS",
    "metadata_variable": "DSOSDAT",
    "annotation_table": "研究结束页",
    "annotation_variable": "若受试者失访，最后一次获知存活的日期",
    "SDTM_Domain": "DS",
    "SDTM_Variable": "QVAL when QNAM=DSLSTDTC",
    "reference_source": "LLM",
    "evaluation_cohort": "AI_RECOMMENDATION"
  },
  {
    "evaluation_id": "FPH-0510",
    "metadata_table": "OT",
    "metadata_variable": "OTDAT",
    "annotation_table": "其他计划外检查",
    "annotation_variable": "检查日期",
    "SDTM_Domain": "XB",
    "SDTM_Variable": "XBDTC",
    "reference_source": "KB",
    "evaluation_cohort": "KB_DISAGREE"
  },
  {
    "evaluation_id": "FPH-0511",
    "metadata_table": "OT_DE",
    "metadata_variable": "OTTEST",
    "annotation_table": "其他计划外检查明细",
    "annotation_variable": "检查项",
    "SDTM_Domain": "XB",
    "SDTM_Variable": "QVAL when QNAM=XBORTEST",
    "reference_source": "KB",
    "evaluation_cohort": "AI_RECOMMENDATION"
  },
  {
    "evaluation_id": "FPH-0512",
    "metadata_table": "OT_DE",
    "metadata_variable": "OTRES",
    "annotation_table": "其他计划外检查明细",
    "annotation_variable": "检查结果",
    "SDTM_Domain": "XB",
    "SDTM_Variable": "XBORRES when XBTESTCD=RES",
    "reference_source": "KB",
    "evaluation_cohort": "AI_RECOMMENDATION"
  },
  {
    "evaluation_id": "FPH-0513",
    "metadata_table": "OT_DE",
    "metadata_variable": "OTRESU",
    "annotation_table": "其他计划外检查明细",
    "annotation_variable": "单位",
    "SDTM_Domain": "XB",
    "SDTM_Variable": "XBORRESU",
    "reference_source": "KB",
    "evaluation_cohort": "AI_RECOMMENDATION"
  },
  {
    "evaluation_id": "FPH-0514",
    "metadata_table": "OT_DE",
    "metadata_variable": "OTCLSI",
    "annotation_table": "其他计划外检查明细",
    "annotation_variable": "临床意义评价",
    "SDTM_Domain": "XB",
    "SDTM_Variable": "QVAL when QNAM=XBCLSIG",
    "reference_source": "LLM",
    "evaluation_cohort": "AI_RECOMMENDATION"
  },
  {
    "evaluation_id": "FPH-0515",
    "metadata_table": "OT_DE",
    "metadata_variable": "OTORNRLO",
    "annotation_table": "其他计划外检查明细",
    "annotation_variable": "参考范围下限值",
    "SDTM_Domain": "XB",
    "SDTM_Variable": "XBORNRLO",
    "reference_source": "LLM",
    "evaluation_cohort": "AI_RECOMMENDATION"
  },
  {
    "evaluation_id": "FPH-0516",
    "metadata_table": "OT_DE",
    "metadata_variable": "OTORNRHI",
    "annotation_table": "其他计划外检查明细",
    "annotation_variable": "参考范围上限值",
    "SDTM_Domain": "XB",
    "SDTM_Variable": "XBORNRHI",
    "reference_source": "LLM",
    "evaluation_cohort": "AI_RECOMMENDATION"
  }
]
