[
  {
    "annotation_table":"受试者\/参与者信息",
    "metadata_table":"SUBJECT",
    "annotation_variable":"研究代码",
    "metadata_variable":"STUDYID",
    "SDTM_Domain":"DM",
    "SDTM_Variable":"STUDYID"
  },
  {
    "annotation_table":"受试者\/参与者信息",
    "metadata_table":"SUBJECT",
    "annotation_variable":"中心名称",
    "metadata_variable":"SITENAME",
    "SDTM_Domain":"DM",
    "SDTM_Variable":"QVAL when QNAM=SITENAM"
  },
  {
    "annotation_table":"受试者\/参与者信息",
    "metadata_table":"SUBJECT",
    "annotation_variable":"中心编号",
    "metadata_variable":"SITEID",
    "SDTM_Domain":"DM",
    "SDTM_Variable":"SITEID"
  },
  {
    "annotation_table":"受试者\/参与者信息",
    "metadata_table":"SUBJECT",
    "annotation_variable":"研究者",
    "metadata_variable":"INVNAM",
    "SDTM_Domain":"DM",
    "SDTM_Variable":"INVNAM"
  },
  {
    "annotation_table":"受试者\/参与者信息",
    "metadata_table":"SUBJECT",
    "annotation_variable":"受试者\/参与者筛选号",
    "metadata_variable":"SUBJID",
    "SDTM_Domain":"DM",
    "SDTM_Variable":"SUBJID"
  },
  {
    "annotation_table":"受试者\/参与者信息",
    "metadata_table":"SUBJECT",
    "annotation_variable":"受试者\/参与者状态",
    "metadata_variable":"STATUS",
    "SDTM_Domain":"DM",
    "SDTM_Variable":"QVAL when QNAM=STATUS"
  },
  {
    "annotation_table":"受试者\/参与者信息",
    "metadata_table":"SUBJECT",
    "annotation_variable":"eCRF版本号",
    "metadata_variable":"CRFVER",
    "SDTM_Domain":null,
    "SDTM_Variable":"NOT SUBMITTED"
  },
  {
    "annotation_table":"受试者\/参与者信息",
    "metadata_table":"SUBJECT",
    "annotation_variable":"eCRF状态",
    "metadata_variable":"CRFSTS",
    "SDTM_Domain":null,
    "SDTM_Variable":"NOT SUBMITTED"
  },
  {
    "annotation_table":"受试者\/参与者信息",
    "metadata_table":"SUBJECT",
    "annotation_variable":"研究者代码（隐藏变量）",
    "metadata_variable":"INVID",
    "SDTM_Domain":"DM",
    "SDTM_Variable":"INVID"
  },
  {
    "annotation_table":"受试者\/参与者信息",
    "metadata_table":"SUBJECT",
    "annotation_variable":"国家（隐藏变量）",
    "metadata_variable":"COUNTRY",
    "SDTM_Domain":"DM",
    "SDTM_Variable":"COUNTRY"
  },
  {
    "annotation_table":"受试者\/参与者信息",
    "metadata_table":"SUBJECT",
    "annotation_variable":"唯一受试者\/参与者代码（隐藏变量）",
    "metadata_variable":"USUBJID",
    "SDTM_Domain":null,
    "SDTM_Variable":null
  },
  {
    "annotation_table":"访视日期",
    "metadata_table":"SV",
    "annotation_variable":"是否进行此次访视？",
    "metadata_variable":"SVOCCUR",
    "SDTM_Domain":"SV",
    "SDTM_Variable":"SVOCCUR"
  },
  {
    "annotation_table":"访视日期",
    "metadata_table":"SV",
    "annotation_variable":"未进行访视的原因",
    "metadata_variable":"SVREASOC",
    "SDTM_Domain":"SV",
    "SDTM_Variable":"SVREASOC"
  },
  {
    "annotation_table":"访视日期",
    "metadata_table":"SV",
    "annotation_variable":"访视日期",
    "metadata_variable":"VISDAT",
    "SDTM_Domain":"SV",
    "SDTM_Variable":"SVSTDTC\/SVENDTC"
  },
  {
    "annotation_table":"知情同意",
    "metadata_table":"IC",
    "annotation_variable":"首次签署知情同意书日期",
    "metadata_variable":"RFICDAT",
    "SDTM_Domain":"DS|DM",
    "SDTM_Variable":"DSSTDTC|RFICDTC"
  },
  {
    "annotation_table":"知情同意",
    "metadata_table":"IC",
    "annotation_variable":"首次签署知情同意书时间（24小时制）",
    "metadata_variable":"RFICTIM",
    "SDTM_Domain":"DS|DM",
    "SDTM_Variable":"DSSTDTC|RFICDTC"
  },
  {
    "annotation_table":"知情同意",
    "metadata_table":"IC",
    "annotation_variable":"首次签署知情同意书对应的方案版本号",
    "metadata_variable":"PROVER",
    "SDTM_Domain":"DS",
    "SDTM_Variable":"QVAL when QNAM=PROVER"
  },
  {
    "annotation_table":"知情同意",
    "metadata_table":"IC",
    "annotation_variable":"是否因方案变更重新签署知情同意书？",
    "metadata_variable":"REICYN",
    "SDTM_Domain":null,
    "SDTM_Variable":"NOT SUBMITTED"
  },
  {
    "annotation_table":"知情同意",
    "metadata_table":"IC",
    "annotation_variable":"重新签署知情同意书日期",
    "metadata_variable":"IC1DAT",
    "SDTM_Domain":"DS",
    "SDTM_Variable":"DSSTDTC"
  },
  {
    "annotation_table":"知情同意",
    "metadata_table":"IC",
    "annotation_variable":"重新签署知情同意书时间（24小时制）",
    "metadata_variable":"IC1TIM",
    "SDTM_Domain":"DS",
    "SDTM_Variable":"DSSTDTC"
  },
  {
    "annotation_table":"知情同意",
    "metadata_table":"IC",
    "annotation_variable":"重新签署知情同意书对应的方案版本号",
    "metadata_variable":"PRO1VER",
    "SDTM_Domain":"DS",
    "SDTM_Variable":"QVAL when QNAM=PROVER"
  },
  {
    "annotation_table":"知情同意",
    "metadata_table":"IC1",
    "annotation_variable":"是否签署疾病进展后继续治疗知情同意书？",
    "metadata_variable":"ICYN",
    "SDTM_Domain":null,
    "SDTM_Variable":"NOT SUBMITTED"
  },
  {
    "annotation_table":"知情同意",
    "metadata_table":"IC1",
    "annotation_variable":"签署疾病进展后继续治疗知情同意书日期",
    "metadata_variable":"RFICDAT",
    "SDTM_Domain":"DS",
    "SDTM_Variable":"DSSTDTC"
  },
  {
    "annotation_table":"知情同意",
    "metadata_table":"IC2",
    "annotation_variable":"是否签署探索性研究知情同意书？",
    "metadata_variable":"ICYN",
    "SDTM_Domain":null,
    "SDTM_Variable":"NOT SUBMITTED"
  },
  {
    "annotation_table":"知情同意",
    "metadata_table":"IC2",
    "annotation_variable":"签署探索性研究知情同意书日期",
    "metadata_variable":"RFICDAT",
    "SDTM_Domain":"DS",
    "SDTM_Variable":"DSSTDTC"
  },
  {
    "annotation_table":"人口学资料",
    "metadata_table":"DM",
    "annotation_variable":"出生日期",
    "metadata_variable":"BRTHDAT",
    "SDTM_Domain":"DM",
    "SDTM_Variable":"BRTHDTC"
  },
  {
    "annotation_table":"人口学资料",
    "metadata_table":"DM",
    "annotation_variable":"年龄（岁）",
    "metadata_variable":"AGE",
    "SDTM_Domain":"DM",
    "SDTM_Variable":"AGE\/AGEU"
  },
  {
    "annotation_table":"人口学资料",
    "metadata_table":"DM",
    "annotation_variable":"性别",
    "metadata_variable":"SEX",
    "SDTM_Domain":"DM",
    "SDTM_Variable":"SEX"
  },
  {
    "annotation_table":"人口学资料",
    "metadata_table":"DM",
    "annotation_variable":"民族",
    "metadata_variable":"ETHNICC",
    "SDTM_Domain":"DM",
    "SDTM_Variable":"QVAL when QNAM=ETHNICC"
  },
  {
    "annotation_table":"人口学资料",
    "metadata_table":"DM",
    "annotation_variable":"民族若为其他，请说明",
    "metadata_variable":"ETHNICCO",
    "SDTM_Domain":"DM",
    "SDTM_Variable":"QVAL when QNAM=ETHNOTH"
  },
  {
    "annotation_table":"人口学资料",
    "metadata_table":"DM",
    "annotation_variable":"性别为女性时，是否需要进行妊娠检查？",
    "metadata_variable":"RPYN",
    "SDTM_Domain":"DM",
    "SDTM_Variable":"QVAL when QNAM=RPYN"
  },
  {
    "annotation_table":"人口学资料",
    "metadata_table":"DM",
    "annotation_variable":"若否，请说明原因",
    "metadata_variable":"RPREAS",
    "SDTM_Domain":"DM",
    "SDTM_Variable":"QVAL when QNAM=RPREAS"
  },
  {
    "annotation_table":"Demographics",
    "metadata_table":"DM1",
    "annotation_variable":"Year of birth",
    "metadata_variable":"BRTHYY",
    "SDTM_Domain":"DM",
    "SDTM_Variable":"BRTHDTC"
  },
  {
    "annotation_table":"Demographics",
    "metadata_table":"DM1",
    "annotation_variable":"Age（Years）",
    "metadata_variable":"AGE",
    "SDTM_Domain":"DM",
    "SDTM_Variable":"AGE\/AGEU"
  },
  {
    "annotation_table":"Demographics",
    "metadata_table":"DM1",
    "annotation_variable":"Sex",
    "metadata_variable":"SEX",
    "SDTM_Domain":"DM",
    "SDTM_Variable":"SEX"
  },
  {
    "annotation_table":"Demographics",
    "metadata_table":"DM1",
    "annotation_variable":"Ethnicity",
    "metadata_variable":"ETHNIC",
    "SDTM_Domain":"DM",
    "SDTM_Variable":"ETHNIC"
  },
  {
    "annotation_table":"Demographics",
    "metadata_table":"DM1",
    "annotation_variable":"Race",
    "metadata_variable":"RACE",
    "SDTM_Domain":"DM",
    "SDTM_Variable":"RACE"
  },
  {
    "annotation_table":"Demographics",
    "metadata_table":"DM1",
    "annotation_variable":"Other, please specify",
    "metadata_variable":"RACEOTH",
    "SDTM_Domain":"DM",
    "SDTM_Variable":"QVAL when QNAM=RACEOTH"
  },
  {
    "annotation_table":"Demographics",
    "metadata_table":"DM1",
    "annotation_variable":"Childbearing Potential",
    "metadata_variable":"RPYN",
    "SDTM_Domain":"DM",
    "SDTM_Variable":"QVAL when QNAM=RPYN"
  },
  {
    "annotation_table":"Demographics",
    "metadata_table":"DM1",
    "annotation_variable":"If no, specify reason",
    "metadata_variable":"RPREAS",
    "SDTM_Domain":"DM",
    "SDTM_Variable":"QVAL when QNAM=RPREAS"
  },
  {
    "annotation_table":"既往及现病史问询页",
    "metadata_table":"MHYN",
    "annotation_variable":"是否存在既往及现病史？",
    "metadata_variable":"MHYN",
    "SDTM_Domain":null,
    "SDTM_Variable":"NOT SUBMITTED"
  },
  {
    "annotation_table":"既往及现病史",
    "metadata_table":"MH",
    "annotation_variable":"疾病\/诊断名称",
    "metadata_variable":"MHTERM",
    "SDTM_Domain":"MH",
    "SDTM_Variable":"MHTERM"
  },
  {
    "annotation_table":"既往及现病史",
    "metadata_table":"MH",
    "annotation_variable":"开始日期",
    "metadata_variable":"MHSTDAT",
    "SDTM_Domain":"MH",
    "SDTM_Variable":"MHSTDTC"
  },
  {
    "annotation_table":"既往及现病史",
    "metadata_table":"MH",
    "annotation_variable":"是否持续？",
    "metadata_variable":"MHONGO",
    "SDTM_Domain":"MH",
    "SDTM_Variable":"QVAL when QNAM=MHONGO"
  },
  {
    "annotation_table":"既往及现病史",
    "metadata_table":"MH",
    "annotation_variable":"结束日期",
    "metadata_variable":"MHENDAT",
    "SDTM_Domain":"MH",
    "SDTM_Variable":"MHENDTC"
  },
  {
    "annotation_table":"不良事件问询页",
    "metadata_table":"AEYN",
    "annotation_variable":"是否发生不良事件？",
    "metadata_variable":"AEYN",
    "SDTM_Domain":null,
    "SDTM_Variable":"NOT SUBMITTED"
  },
  {
    "annotation_table":"不良事件",
    "metadata_table":"AE",
    "annotation_variable":"不良事件名称",
    "metadata_variable":"AETERM",
    "SDTM_Domain":"AE",
    "SDTM_Variable":"AETERM"
  },
  {
    "annotation_table":"不良事件",
    "metadata_table":"AE",
    "annotation_variable":"开始日期",
    "metadata_variable":"AESTDAT",
    "SDTM_Domain":"AE",
    "SDTM_Variable":"AESTDTC"
  },
  {
    "annotation_table":"不良事件",
    "metadata_table":"AE",
    "annotation_variable":"开始时间（24小时制）",
    "metadata_variable":"AESTTIM",
    "SDTM_Domain":"AE",
    "SDTM_Variable":"AESTDTC"
  },
  {
    "annotation_table":"不良事件",
    "metadata_table":"AE",
    "annotation_variable":"若AE开始日期等于首次给药日期，请填写发生阶段",
    "metadata_variable":"AEPHASE",
    "SDTM_Domain":"AE",
    "SDTM_Variable":"QVAL when QNAM=AEPHASE"
  },
  {
    "annotation_table":"不良事件",
    "metadata_table":"AE",
    "annotation_variable":"是否为输液相关反应？",
    "metadata_variable":"AEINREYN",
    "SDTM_Domain":"AE",
    "SDTM_Variable":"QVAL when QNAM=AEINFRE"
  },
  {
    "annotation_table":"不良事件",
    "metadata_table":"AE",
    "annotation_variable":"是否为剂量限制性毒性（DLT）？",
    "metadata_variable":"AEDLTYN",
    "SDTM_Domain":"AE",
    "SDTM_Variable":"QVAL when QNAM=AEDLT"
  },
  {
    "annotation_table":"不良事件",
    "metadata_table":"AE",
    "annotation_variable":"是否为迟发性剂量限制性毒性（DLT）？",
    "metadata_variable":"AEDDLTYN",
    "SDTM_Domain":"AE",
    "SDTM_Variable":"QVAL when QNAM=AEDDLT"
  },
  {
    "annotation_table":"不良事件",
    "metadata_table":"AE",
    "annotation_variable":"是否为免疫相关不良事件（irAE）？",
    "metadata_variable":"AEIRYN",
    "SDTM_Domain":"AE",
    "SDTM_Variable":"QVAL when QNAM=AEIMRE"
  },
  {
    "annotation_table":"不良事件",
    "metadata_table":"AE",
    "annotation_variable":"是否为特别关注的不良事件（AESI）？",
    "metadata_variable":"AESIYN",
    "SDTM_Domain":"AE",
    "SDTM_Variable":"QVAL when QNAM=AESI"
  },
  {
    "annotation_table":"不良事件",
    "metadata_table":"AE",
    "annotation_variable":"是否为严重不良事件(SAE)？",
    "metadata_variable":"AESERYN",
    "SDTM_Domain":"AE",
    "SDTM_Variable":"AESER"
  },
  {
    "annotation_table":"不良事件",
    "metadata_table":"AE",
    "annotation_variable":"导致死亡",
    "metadata_variable":"AESDTH",
    "SDTM_Domain":"AE",
    "SDTM_Variable":"AESDTH"
  },
  {
    "annotation_table":"不良事件",
    "metadata_table":"AE",
    "annotation_variable":"危及生命",
    "metadata_variable":"AESLIFE",
    "SDTM_Domain":"AE",
    "SDTM_Variable":"AESLIFE"
  },
  {
    "annotation_table":"不良事件",
    "metadata_table":"AE",
    "annotation_variable":"导致住院或住院时间延长",
    "metadata_variable":"AESHOSP",
    "SDTM_Domain":"AE",
    "SDTM_Variable":"AESHOSP"
  },
  {
    "annotation_table":"不良事件",
    "metadata_table":"AE",
    "annotation_variable":"导致永久或者严重的残疾或者功能丧失",
    "metadata_variable":"AESDISAB",
    "SDTM_Domain":"AE",
    "SDTM_Variable":"AESDISAB"
  },
  {
    "annotation_table":"不良事件",
    "metadata_table":"AE",
    "annotation_variable":"导致先天性异常或出生缺陷",
    "metadata_variable":"AESCONG",
    "SDTM_Domain":"AE",
    "SDTM_Variable":"AESCONG"
  },
  {
    "annotation_table":"不良事件",
    "metadata_table":"AE",
    "annotation_variable":"其他重要医学事件",
    "metadata_variable":"AESMIE",
    "SDTM_Domain":"AE",
    "SDTM_Variable":"AESMIE"
  },
  {
    "annotation_table":"不良事件",
    "metadata_table":"AE",
    "annotation_variable":"SAE开始日期",
    "metadata_variable":"SAESTDAT",
    "SDTM_Domain":"AE",
    "SDTM_Variable":"QVAL when QNAM=SAESTDTC"
  },
  {
    "annotation_table":"不良事件",
    "metadata_table":"AE",
    "annotation_variable":"与<试验药物>的关系",
    "metadata_variable":"AEREL",
    "SDTM_Domain":"AE",
    "SDTM_Variable":"AEREL"
  },
  {
    "annotation_table":"不良事件",
    "metadata_table":"AE",
    "annotation_variable":"与<联合药A>的关系",
    "metadata_variable":"AEREL1",
    "SDTM_Domain":"AE",
    "SDTM_Variable":"QVAL when QNAM=AEREL1"
  },
  {
    "annotation_table":"不良事件",
    "metadata_table":"AE",
    "annotation_variable":"对<试验药物>采取的措施",
    "metadata_variable":"AEACN",
    "SDTM_Domain":"AE",
    "SDTM_Variable":"AEACN"
  },
  {
    "annotation_table":"不良事件",
    "metadata_table":"AE",
    "annotation_variable":"对<联合药A>采取的措施",
    "metadata_variable":"AEACN1",
    "SDTM_Domain":"AE",
    "SDTM_Variable":"QVAL when QNAM=AEACN1"
  },
  {
    "annotation_table":"不良事件",
    "metadata_table":"AE",
    "annotation_variable":"对不良事件采取的措施",
    "metadata_variable":"AETRT",
    "SDTM_Domain":"AE",
    "SDTM_Variable":"AEACNOTH"
  },
  {
    "annotation_table":"不良事件",
    "metadata_table":"AE",
    "annotation_variable":"转归",
    "metadata_variable":"AEOUT",
    "SDTM_Domain":"AE",
    "SDTM_Variable":"AEOUT"
  },
  {
    "annotation_table":"不良事件",
    "metadata_table":"AE",
    "annotation_variable":"结束日期",
    "metadata_variable":"AEENDAT",
    "SDTM_Domain":"AE",
    "SDTM_Variable":"AEENDTC"
  },
  {
    "annotation_table":"不良事件",
    "metadata_table":"AE",
    "annotation_variable":"结束时间（24小时制）",
    "metadata_variable":"AEENTIM",
    "SDTM_Domain":"AE",
    "SDTM_Variable":"AEENDTC"
  },
  {
    "annotation_table":"不良事件",
    "metadata_table":"AE",
    "annotation_variable":"严重程度开始日期",
    "metadata_variable":"AESEVDAT",
    "SDTM_Domain":"AE",
    "SDTM_Variable":"QVAL when QNAM=SEVDTC"
  },
  {
    "annotation_table":"不良事件",
    "metadata_table":"AE",
    "annotation_variable":"严重程度<3级>",
    "metadata_variable":"AESEV",
    "SDTM_Domain":"AE",
    "SDTM_Variable":"AESEV"
  },
  {
    "annotation_table":"不良事件",
    "metadata_table":"AE",
    "annotation_variable":"严重程度<5级>",
    "metadata_variable":"AETOXGR",
    "SDTM_Domain":"AE",
    "SDTM_Variable":"AETOXGR"
  },
  {
    "annotation_table":"既往及合并用药问询页",
    "metadata_table":"CMYN",
    "annotation_variable":"是否有既往及合并用药？",
    "metadata_variable":"CMYN",
    "SDTM_Domain":null,
    "SDTM_Variable":"NOT SUBMITTED"
  },
  {
    "annotation_table":"既往及合并用药",
    "metadata_table":"CM",
    "annotation_variable":"药物名称",
    "metadata_variable":"CMTRT",
    "SDTM_Domain":"CM",
    "SDTM_Variable":"CMTRT"
  },
  {
    "annotation_table":"既往及合并用药",
    "metadata_table":"CM",
    "annotation_variable":"开始日期",
    "metadata_variable":"CMSTDAT",
    "SDTM_Domain":"CM",
    "SDTM_Variable":"CMSTDTC"
  },
  {
    "annotation_table":"既往及合并用药",
    "metadata_table":"CM",
    "annotation_variable":"是否持续？",
    "metadata_variable":"CMONGO",
    "SDTM_Domain":"CM",
    "SDTM_Variable":"QVAL when QNAM=CMONGO"
  },
  {
    "annotation_table":"既往及合并用药",
    "metadata_table":"CM",
    "annotation_variable":"结束日期",
    "metadata_variable":"CMENDAT",
    "SDTM_Domain":"CM",
    "SDTM_Variable":"CMENDTC"
  },
  {
    "annotation_table":"既往及合并用药",
    "metadata_table":"CM",
    "annotation_variable":"用药原因",
    "metadata_variable":"CMINDC",
    "SDTM_Domain":"CM",
    "SDTM_Variable":"CMINDC"
  },
  {
    "annotation_table":"既往及合并用药",
    "metadata_table":"CM",
    "annotation_variable":"用药原因为不良事件，请填写不良事件",
    "metadata_variable":"CMAENO",
    "SDTM_Domain":"CM",
    "SDTM_Variable":"QVAL when QNAM=CMAENO"
  },
  {
    "annotation_table":"既往及合并用药",
    "metadata_table":"CM",
    "annotation_variable":"用药原因为既往及现病史，请填写病史",
    "metadata_variable":"CMMHNO",
    "SDTM_Domain":"CM",
    "SDTM_Variable":"QVAL when QNAM=CMMHNO"
  },
  {
    "annotation_table":"既往及合并用药",
    "metadata_table":"CM",
    "annotation_variable":"用药原因为预防用药，请描述",
    "metadata_variable":"CMINPL",
    "SDTM_Domain":"CM",
    "SDTM_Variable":"QVAL when QNAM=CMINPL"
  },
  {
    "annotation_table":"既往及合并用药",
    "metadata_table":"CM",
    "annotation_variable":"用药原因为研究疾病，请描述（隐藏变量）",
    "metadata_variable":"CMINSD",
    "SDTM_Domain":"CM",
    "SDTM_Variable":"QVAL when QNAM=CMINSD"
  },
  {
    "annotation_table":"既往及合并用药",
    "metadata_table":"CM",
    "annotation_variable":"用药原因为研究疾病相关症状，请描述",
    "metadata_variable":"CMINCS",
    "SDTM_Domain":"CM",
    "SDTM_Variable":"QVAL when QNAM=CMINCS"
  },
  {
    "annotation_table":"既往及合并用药",
    "metadata_table":"CM",
    "annotation_variable":"用药原因为其他，请描述",
    "metadata_variable":"CMINOTH",
    "SDTM_Domain":"CM",
    "SDTM_Variable":"QVAL when QNAM=CMINDOTH"
  },
  {
    "annotation_table":"既往及合并用药",
    "metadata_table":"CM",
    "annotation_variable":"单次剂量",
    "metadata_variable":"CMDSTXT",
    "SDTM_Domain":"CM",
    "SDTM_Variable":"CMDOSE\/CMDOSTXT"
  },
  {
    "annotation_table":"既往及合并用药",
    "metadata_table":"CM",
    "annotation_variable":"剂量单位",
    "metadata_variable":"CMDOSU",
    "SDTM_Domain":"CM",
    "SDTM_Variable":"CMDOSU"
  },
  {
    "annotation_table":"既往及合并用药",
    "metadata_table":"CM",
    "annotation_variable":"其他单位",
    "metadata_variable":"CMDOSUO",
    "SDTM_Domain":"CM",
    "SDTM_Variable":"CMDOSU"
  },
  {
    "annotation_table":"既往及合并用药",
    "metadata_table":"CM",
    "annotation_variable":"剂型",
    "metadata_variable":"CMDOSFRM",
    "SDTM_Domain":"CM",
    "SDTM_Variable":"CMDOSFRM"
  },
  {
    "annotation_table":"既往及合并用药",
    "metadata_table":"CM",
    "annotation_variable":"其他剂型",
    "metadata_variable":"CMFRMOTH",
    "SDTM_Domain":"CM",
    "SDTM_Variable":"CMDOSFRM"
  },
  {
    "annotation_table":"既往及合并用药",
    "metadata_table":"CM",
    "annotation_variable":"给药频率",
    "metadata_variable":"CMDOSFRQ",
    "SDTM_Domain":"CM",
    "SDTM_Variable":"CMDOSFRQ"
  },
  {
    "annotation_table":"既往及合并用药",
    "metadata_table":"CM",
    "annotation_variable":"其他给药频率",
    "metadata_variable":"CMFRQOTH",
    "SDTM_Domain":"CM",
    "SDTM_Variable":"CMDOSFRQ"
  },
  {
    "annotation_table":"既往及合并用药",
    "metadata_table":"CM",
    "annotation_variable":"给药途径",
    "metadata_variable":"CMROUTE",
    "SDTM_Domain":"CM",
    "SDTM_Variable":"CMROUTE"
  },
  {
    "annotation_table":"既往及合并用药",
    "metadata_table":"CM",
    "annotation_variable":"其他给药途径",
    "metadata_variable":"CMROUTEO",
    "SDTM_Domain":"CM",
    "SDTM_Variable":"CMROUTE"
  },
  {
    "annotation_table":"既往及合并非药物治疗问询页",
    "metadata_table":"PRYN",
    "annotation_variable":"是否有既往及合并非药物治疗？",
    "metadata_variable":"PRYN",
    "SDTM_Domain":null,
    "SDTM_Variable":"NOT SUBMITTED"
  },
  {
    "annotation_table":"既往及合并非药物治疗",
    "metadata_table":"PR",
    "annotation_variable":"非药物治疗名称",
    "metadata_variable":"PRTRT",
    "SDTM_Domain":"PR",
    "SDTM_Variable":"PRTRT"
  },
  {
    "annotation_table":"既往及合并非药物治疗",
    "metadata_table":"PR",
    "annotation_variable":"开始日期",
    "metadata_variable":"PRSTDAT",
    "SDTM_Domain":"PR",
    "SDTM_Variable":"PRSTDTC"
  },
  {
    "annotation_table":"既往及合并非药物治疗",
    "metadata_table":"PR",
    "annotation_variable":"是否持续？",
    "metadata_variable":"PRONGO",
    "SDTM_Domain":"PR",
    "SDTM_Variable":"QVAL when QNAM=PRONGO"
  },
  {
    "annotation_table":"既往及合并非药物治疗",
    "metadata_table":"PR",
    "annotation_variable":"结束日期",
    "metadata_variable":"PRENDAT",
    "SDTM_Domain":"PR",
    "SDTM_Variable":"PRENDTC"
  },
  {
    "annotation_table":"既往及合并非药物治疗",
    "metadata_table":"PR",
    "annotation_variable":"治疗原因",
    "metadata_variable":"PRINDC",
    "SDTM_Domain":"PR",
    "SDTM_Variable":"PRINDC"
  },
  {
    "annotation_table":"既往及合并非药物治疗",
    "metadata_table":"PR",
    "annotation_variable":"治疗原因为不良事件，请填写不良事件",
    "metadata_variable":"PRAENO",
    "SDTM_Domain":"PR",
    "SDTM_Variable":"QVAL when QNAM=PRAENO"
  },
  {
    "annotation_table":"既往及合并非药物治疗",
    "metadata_table":"PR",
    "annotation_variable":"治疗原因为既往及现病史，请填写病史",
    "metadata_variable":"PRMHNO",
    "SDTM_Domain":"PR",
    "SDTM_Variable":"QVAL when QNAM=PRMHNO"
  },
  {
    "annotation_table":"既往及合并非药物治疗",
    "metadata_table":"PR",
    "annotation_variable":"治疗原因为预防治疗，请描述",
    "metadata_variable":"PRINPL",
    "SDTM_Domain":"PR",
    "SDTM_Variable":"QVAL when QNAM=PRINPL"
  },
  {
    "annotation_table":"既往及合并非药物治疗",
    "metadata_table":"PR",
    "annotation_variable":"治疗原因为研究疾病相关症状，请描述",
    "metadata_variable":"PRINCS",
    "SDTM_Domain":"PR",
    "SDTM_Variable":"QVAL when QNAM=PRINCS"
  },
  {
    "annotation_table":"既往及合并非药物治疗",
    "metadata_table":"PR",
    "annotation_variable":"治疗原因为其他，请描述",
    "metadata_variable":"PRINOTH",
    "SDTM_Domain":"PR",
    "SDTM_Variable":"QVAL when QNAM=PRINDOTH"
  },
  {
    "annotation_table":"实验室检查",
    "metadata_table":"LB",
    "annotation_variable":"模块名称（隐藏变量）",
    "metadata_variable":"LBCAT",
    "SDTM_Domain":"LB",
    "SDTM_Variable":"LBCAT"
  },
  {
    "annotation_table":"实验室检查",
    "metadata_table":"LB",
    "annotation_variable":"是否完成实验室检查？",
    "metadata_variable":"LBPERF",
    "SDTM_Domain":"LB",
    "SDTM_Variable":"LBSTAT=未查 if [RAW]LBPERF=否 "
  },
  {
    "annotation_table":"实验室检查",
    "metadata_table":"LB",
    "annotation_variable":"采样日期",
    "metadata_variable":"LBDAT",
    "SDTM_Domain":"LB",
    "SDTM_Variable":"LBDTC"
  },
  {
    "annotation_table":"实验室检查",
    "metadata_table":"LB",
    "annotation_variable":"采样时间（24小时制）",
    "metadata_variable":"LBTIM",
    "SDTM_Domain":"LB",
    "SDTM_Variable":"LBDTC"
  },
  {
    "annotation_table":"实验室检查",
    "metadata_table":"LB",
    "annotation_variable":"实验室名称",
    "metadata_variable":"LBNAM",
    "SDTM_Domain":"LB",
    "SDTM_Variable":"LBNAM"
  },
  {
    "annotation_table":"实验室检查",
    "metadata_table":"LB",
    "annotation_variable":"肌酐清除率（mL\/min）<派生，仅血生化显示>",
    "metadata_variable":"CCR",
    "SDTM_Domain":"LB",
    "SDTM_Variable":"LBORRES when LBTESTCD=CREATCLR"
  },
  {
    "annotation_table":"实验室检查",
    "metadata_table":"LB",
    "annotation_variable":"肾小球滤过率（mL\/min\/1.73m^2）<派生，仅血生化显示>",
    "metadata_variable":"GFR",
    "SDTM_Domain":"LB",
    "SDTM_Variable":"LBORRES when LBTESTCD=GFR"
  },
  {
    "annotation_table":"实验室检查",
    "metadata_table":"LB",
    "annotation_variable":"检查项目",
    "metadata_variable":"LBTEST",
    "SDTM_Domain":"LB",
    "SDTM_Variable":"LBTEST"
  },
  {
    "annotation_table":"实验室检查",
    "metadata_table":"LB",
    "annotation_variable":"结果",
    "metadata_variable":"LBORRES",
    "SDTM_Domain":"LB",
    "SDTM_Variable":"LBORRES"
  },
  {
    "annotation_table":"实验室检查",
    "metadata_table":"LB",
    "annotation_variable":"单位",
    "metadata_variable":"LBORRESU",
    "SDTM_Domain":"LB",
    "SDTM_Variable":"LBORRESU"
  },
  {
    "annotation_table":"实验室检查",
    "metadata_table":"LB",
    "annotation_variable":"临床意义评价",
    "metadata_variable":"LBCLSI",
    "SDTM_Domain":"LB",
    "SDTM_Variable":"QVAL when QNAM=LBCLSI"
  },
  {
    "annotation_table":"实验室检查",
    "metadata_table":"LB",
    "annotation_variable":"异常有临床意义，请描述",
    "metadata_variable":"LBDESC",
    "SDTM_Domain":"LB",
    "SDTM_Variable":"QVAL when QNAM=LBDESC"
  },
  {
    "annotation_table":"实验室检查",
    "metadata_table":"LB",
    "annotation_variable":"既往及现病史",
    "metadata_variable":"LBMHNO",
    "SDTM_Domain":"LB",
    "SDTM_Variable":"QVAL when QNAM=LBMHNO"
  },
  {
    "annotation_table":"实验室检查",
    "metadata_table":"LB",
    "annotation_variable":"不良事件",
    "metadata_variable":"LBAENO",
    "SDTM_Domain":"LB",
    "SDTM_Variable":"QVAL when QNAM=LBAENO"
  },
  {
    "annotation_table":"实验室检查",
    "metadata_table":"LB",
    "annotation_variable":"其他，请描述",
    "metadata_variable":"LBDEOTH",
    "SDTM_Domain":"LB",
    "SDTM_Variable":"QVAL when QNAM=LBDEOTH"
  },
  {
    "annotation_table":"实验室检查",
    "metadata_table":"LB",
    "annotation_variable":"参考范围下限值",
    "metadata_variable":"LBORNRLO",
    "SDTM_Domain":"LB",
    "SDTM_Variable":"LBORNRLO"
  },
  {
    "annotation_table":"实验室检查",
    "metadata_table":"LB",
    "annotation_variable":"参考范围上限值",
    "metadata_variable":"LBORNRHI",
    "SDTM_Domain":"LB",
    "SDTM_Variable":"LBORNRHI"
  },
  {
    "annotation_table":"血常规",
    "metadata_table":"LBB",
    "annotation_variable":"是否完成血常规检查？",
    "metadata_variable":"LBPERF",
    "SDTM_Domain":"LB",
    "SDTM_Variable":"LBSTAT=未查 if [RAW]LBPERF=否 "
  },
  {
    "annotation_table":"血常规",
    "metadata_table":"LBB",
    "annotation_variable":"采样日期",
    "metadata_variable":"LBDAT",
    "SDTM_Domain":"LB",
    "SDTM_Variable":"LBDTC"
  },
  {
    "annotation_table":"血常规",
    "metadata_table":"LBB",
    "annotation_variable":"采样时间（24小时制）",
    "metadata_variable":"LBTIM",
    "SDTM_Domain":"LB",
    "SDTM_Variable":"LBDTC"
  },
  {
    "annotation_table":"血常规",
    "metadata_table":"LBB",
    "annotation_variable":"实验室动态年龄（隐藏变量）",
    "metadata_variable":"LBAGE",
    "SDTM_Domain":null,
    "SDTM_Variable":null
  },
  {
    "annotation_table":"血常规",
    "metadata_table":"LBB",
    "annotation_variable":"红细胞计数(RBC)",
    "metadata_variable":"RBC",
    "SDTM_Domain":"LB",
    "SDTM_Variable":"LBORRES when LBTESTCD=RBC "
  },
  {
    "annotation_table":"血常规",
    "metadata_table":"LBB",
    "annotation_variable":"血红蛋白(HGB)",
    "metadata_variable":"HGB",
    "SDTM_Domain":"LB",
    "SDTM_Variable":"LBORRES when LBTESTCD=HGB "
  },
  {
    "annotation_table":"血常规",
    "metadata_table":"LBB",
    "annotation_variable":"白细胞计数(WBC)",
    "metadata_variable":"WBC",
    "SDTM_Domain":"LB",
    "SDTM_Variable":"LBORRES when LBTESTCD=WBC "
  },
  {
    "annotation_table":"血常规",
    "metadata_table":"LBB",
    "annotation_variable":"中性粒细胞计数(NEUT#)",
    "metadata_variable":"NEUT",
    "SDTM_Domain":"LB",
    "SDTM_Variable":"LBORRES when LBTESTCD=NEUT"
  },
  {
    "annotation_table":"血生化",
    "metadata_table":"LBC",
    "annotation_variable":"是否完成血生化检查？",
    "metadata_variable":"LBPERF",
    "SDTM_Domain":"LB",
    "SDTM_Variable":"LBSTAT=未查 if [RAW]LBPERF=否 "
  },
  {
    "annotation_table":"血生化",
    "metadata_table":"LBC",
    "annotation_variable":"采样日期",
    "metadata_variable":"LBDAT",
    "SDTM_Domain":"LB",
    "SDTM_Variable":"LBDTC"
  },
  {
    "annotation_table":"血生化",
    "metadata_table":"LBC",
    "annotation_variable":"采样时间（24小时制）",
    "metadata_variable":"LBTIM",
    "SDTM_Domain":"LB",
    "SDTM_Variable":"LBDTC"
  },
  {
    "annotation_table":"血生化",
    "metadata_table":"LBC",
    "annotation_variable":"实验室动态年龄（隐藏变量）",
    "metadata_variable":"LBAGE",
    "SDTM_Domain":null,
    "SDTM_Variable":null
  },
  {
    "annotation_table":"血生化",
    "metadata_table":"LBC",
    "annotation_variable":"肌酐清除率（mL\/min）<派生>",
    "metadata_variable":"CCR",
    "SDTM_Domain":"LB",
    "SDTM_Variable":"LBORRES when LBTESTCD=CREATCLR"
  },
  {
    "annotation_table":"血生化",
    "metadata_table":"LBC",
    "annotation_variable":"肾小球滤过率（mL\/min\/1.73m^2）<派生>",
    "metadata_variable":"GFR",
    "SDTM_Domain":"LB",
    "SDTM_Variable":"LBORRES when LBTESTCD=GFR "
  },
  {
    "annotation_table":"血生化",
    "metadata_table":"LBC",
    "annotation_variable":"丙氨酸氨基转移酶(ALT)",
    "metadata_variable":"ALT",
    "SDTM_Domain":"LB",
    "SDTM_Variable":"LBORRES when LBTESTCD=ALT"
  },
  {
    "annotation_table":"血生化",
    "metadata_table":"LBC",
    "annotation_variable":"天门冬氨酸氨基转移酶(AST)",
    "metadata_variable":"AST",
    "SDTM_Domain":"LB",
    "SDTM_Variable":"LBORRES when LBTESTCD=AST"
  },
  {
    "annotation_table":"血生化",
    "metadata_table":"LBC",
    "annotation_variable":"碱性磷酸酶(ALP)",
    "metadata_variable":"ALP",
    "SDTM_Domain":"LB",
    "SDTM_Variable":"LBORRES when LBTESTCD=ALP "
  },
  {
    "annotation_table":"血生化",
    "metadata_table":"LBC",
    "annotation_variable":"γ-谷氨酰转移酶(GGT)",
    "metadata_variable":"GGT",
    "SDTM_Domain":"LB",
    "SDTM_Variable":"LBORRES when LBTESTCD=GGT "
  },
  {
    "annotation_table":"血生化",
    "metadata_table":"LBC",
    "annotation_variable":"总胆红素(TBIL)",
    "metadata_variable":"TBIL",
    "SDTM_Domain":"LB",
    "SDTM_Variable":"LBORRES when LBTESTCD=BILI "
  },
  {
    "annotation_table":"血生化",
    "metadata_table":"LBC",
    "annotation_variable":"直接胆红素(DBIL)",
    "metadata_variable":"DBIL",
    "SDTM_Domain":"LB",
    "SDTM_Variable":"LBORRES when LBTESTCD=BILIDIR"
  },
  {
    "annotation_table":"血生化",
    "metadata_table":"LBC",
    "annotation_variable":"肌酐(Cr)",
    "metadata_variable":"CR",
    "SDTM_Domain":"LB",
    "SDTM_Variable":"LBORRES when LBTESTCD=CREAT "
  },
  {
    "annotation_table":"血生化",
    "metadata_table":"LBC",
    "annotation_variable":"尿素氮(BUN)",
    "metadata_variable":"BUN",
    "SDTM_Domain":"LB",
    "SDTM_Variable":"LBORRES when LBTESTCD=UREAN"
  },
  {
    "annotation_table":"血生化",
    "metadata_table":"LBC",
    "annotation_variable":"尿素(UREA)",
    "metadata_variable":"UREA",
    "SDTM_Domain":"LB",
    "SDTM_Variable":"LBORRES when LBTESTCD=UREA"
  },
  {
    "annotation_table":"凝血功能",
    "metadata_table":"LBG",
    "annotation_variable":"是否完成凝血功能检查？",
    "metadata_variable":"LBPERF",
    "SDTM_Domain":"LB",
    "SDTM_Variable":"LBSTAT=未查 if [RAW]LBPERF=否 "
  },
  {
    "annotation_table":"凝血功能",
    "metadata_table":"LBG",
    "annotation_variable":"采样日期",
    "metadata_variable":"LBDAT",
    "SDTM_Domain":"LB",
    "SDTM_Variable":"LBDTC"
  },
  {
    "annotation_table":"凝血功能",
    "metadata_table":"LBG",
    "annotation_variable":"采样时间（24小时制）",
    "metadata_variable":"LBTIM",
    "SDTM_Domain":"LB",
    "SDTM_Variable":"LBDTC"
  },
  {
    "annotation_table":"凝血功能",
    "metadata_table":"LBG",
    "annotation_variable":"实验室动态年龄（隐藏变量）",
    "metadata_variable":"LBAGE",
    "SDTM_Domain":null,
    "SDTM_Variable":null
  },
  {
    "annotation_table":"凝血功能",
    "metadata_table":"LBG",
    "annotation_variable":"凝血酶时间(TT)",
    "metadata_variable":"TT",
    "SDTM_Domain":"LB",
    "SDTM_Variable":"LBORRES when LBTESTCD=TT"
  },
  {
    "annotation_table":"凝血功能",
    "metadata_table":"LBG",
    "annotation_variable":"凝血酶原时间(PT)",
    "metadata_variable":"PT",
    "SDTM_Domain":"LB",
    "SDTM_Variable":"LBORRES when LBTESTCD=PT"
  },
  {
    "annotation_table":"凝血功能",
    "metadata_table":"LBG",
    "annotation_variable":"活化部分凝血活酶时间(APTT)",
    "metadata_variable":"APTT",
    "SDTM_Domain":"LB",
    "SDTM_Variable":"LBORRES when LBTESTCD=APTT"
  },
  {
    "annotation_table":"凝血功能",
    "metadata_table":"LBG",
    "annotation_variable":"国际标准化比值(INR)",
    "metadata_variable":"INR",
    "SDTM_Domain":"LB",
    "SDTM_Variable":"LBORRES when LBTESTCD=INR"
  },
  {
    "annotation_table":"心肌酶谱",
    "metadata_table":"LBM",
    "annotation_variable":"是否完成心肌酶谱检查？",
    "metadata_variable":"LBPERF",
    "SDTM_Domain":"LB",
    "SDTM_Variable":"LBSTAT=未查 if [RAW]LBPERF=否 "
  },
  {
    "annotation_table":"心肌酶谱",
    "metadata_table":"LBM",
    "annotation_variable":"采样日期",
    "metadata_variable":"LBDAT",
    "SDTM_Domain":"LB",
    "SDTM_Variable":"LBDTC"
  },
  {
    "annotation_table":"心肌酶谱",
    "metadata_table":"LBM",
    "annotation_variable":"采样时间（24小时制）",
    "metadata_variable":"LBTIM",
    "SDTM_Domain":"LB",
    "SDTM_Variable":"LBDTC"
  },
  {
    "annotation_table":"心肌酶谱",
    "metadata_table":"LBM",
    "annotation_variable":"实验室动态年龄（隐藏变量）",
    "metadata_variable":"LBAGE",
    "SDTM_Domain":null,
    "SDTM_Variable":null
  },
  {
    "annotation_table":"心肌酶谱",
    "metadata_table":"LBM",
    "annotation_variable":"肌钙蛋白I(TnI)",
    "metadata_variable":"TNI",
    "SDTM_Domain":"LB",
    "SDTM_Variable":"LBORRES when LBTESTCD=TROPONI"
  },
  {
    "annotation_table":"心肌酶谱",
    "metadata_table":"LBM",
    "annotation_variable":"肌钙蛋白T(TnT)",
    "metadata_variable":"TNT",
    "SDTM_Domain":"LB",
    "SDTM_Variable":"LBORRES when LBTESTCD=TROPONT"
  },
  {
    "annotation_table":"垂体-肾上腺轴",
    "metadata_table":"LBP",
    "annotation_variable":"是否完成垂体-肾上腺轴检查？",
    "metadata_variable":"LBPERF",
    "SDTM_Domain":"LB",
    "SDTM_Variable":"LBSTAT=未查 if [RAW]LBPERF=否 "
  },
  {
    "annotation_table":"垂体-肾上腺轴",
    "metadata_table":"LBP",
    "annotation_variable":"采样日期",
    "metadata_variable":"LBDAT",
    "SDTM_Domain":"LB",
    "SDTM_Variable":"LBDTC"
  },
  {
    "annotation_table":"垂体-肾上腺轴",
    "metadata_table":"LBP",
    "annotation_variable":"采样时间（24小时制）",
    "metadata_variable":"LBTIM",
    "SDTM_Domain":"LB",
    "SDTM_Variable":"LBDTC"
  },
  {
    "annotation_table":"垂体-肾上腺轴",
    "metadata_table":"LBP",
    "annotation_variable":"实验室动态年龄（隐藏变量）",
    "metadata_variable":"LBAGE",
    "SDTM_Domain":null,
    "SDTM_Variable":null
  },
  {
    "annotation_table":"垂体-肾上腺轴",
    "metadata_table":"LBP",
    "annotation_variable":"皮质醇(COR)",
    "metadata_variable":"COR",
    "SDTM_Domain":"LB",
    "SDTM_Variable":"LBORRES when LBTESTCD=CORTISOL"
  },
  {
    "annotation_table":"垂体-肾上腺轴",
    "metadata_table":"LBP",
    "annotation_variable":"促肾上腺皮质激素(ACTH)",
    "metadata_variable":"ACTH",
    "SDTM_Domain":"LB",
    "SDTM_Variable":"LBORRES when LBTESTCD=ACTH"
  },
  {
    "annotation_table":"甲状腺功能",
    "metadata_table":"LBTF",
    "annotation_variable":"是否完成甲状腺功能检查？",
    "metadata_variable":"LBPERF",
    "SDTM_Domain":"LB",
    "SDTM_Variable":"LBSTAT=未查 if [RAW]LBPERF=否 "
  },
  {
    "annotation_table":"甲状腺功能",
    "metadata_table":"LBTF",
    "annotation_variable":"采样日期",
    "metadata_variable":"LBDAT",
    "SDTM_Domain":"LB",
    "SDTM_Variable":"LBDTC"
  },
  {
    "annotation_table":"甲状腺功能",
    "metadata_table":"LBTF",
    "annotation_variable":"采样时间（24小时制）",
    "metadata_variable":"LBTIM",
    "SDTM_Domain":"LB",
    "SDTM_Variable":"LBDTC"
  },
  {
    "annotation_table":"甲状腺功能",
    "metadata_table":"LBTF",
    "annotation_variable":"实验室动态年龄（隐藏变量）",
    "metadata_variable":"LBAGE",
    "SDTM_Domain":null,
    "SDTM_Variable":null
  },
  {
    "annotation_table":"甲状腺功能",
    "metadata_table":"LBTF",
    "annotation_variable":"三碘甲腺原氨酸(T3）",
    "metadata_variable":"T3",
    "SDTM_Domain":"LB",
    "SDTM_Variable":"LBORRES when LBTESTCD=T3"
  },
  {
    "annotation_table":"甲状腺功能",
    "metadata_table":"LBTF",
    "annotation_variable":"甲状腺素(T4)",
    "metadata_variable":"T4",
    "SDTM_Domain":"LB",
    "SDTM_Variable":"LBORRES when LBTESTCD=T4"
  },
  {
    "annotation_table":"甲状腺功能",
    "metadata_table":"LBTF",
    "annotation_variable":"游离三碘甲状腺原氨酸(FT3)",
    "metadata_variable":"FT3",
    "SDTM_Domain":"LB",
    "SDTM_Variable":"LBORRES when LBTESTCD=T3FR"
  },
  {
    "annotation_table":"甲状腺功能",
    "metadata_table":"LBTF",
    "annotation_variable":"游离甲状腺素(FT4)",
    "metadata_variable":"FT4",
    "SDTM_Domain":"LB",
    "SDTM_Variable":"LBORRES when LBTESTCD=T4FR"
  },
  {
    "annotation_table":"甲状腺功能",
    "metadata_table":"LBTF",
    "annotation_variable":"促甲状腺激素(TSH)",
    "metadata_variable":"TSH",
    "SDTM_Domain":"LB",
    "SDTM_Variable":"LBORRES when LBTESTCD=TSH"
  },
  {
    "annotation_table":"24小时尿蛋白定量",
    "metadata_table":"LBUPQ",
    "annotation_variable":"是否完成24小时尿蛋白定量检查？",
    "metadata_variable":"LBPERF",
    "SDTM_Domain":"LB",
    "SDTM_Variable":"LBSTAT=未查 if [RAW]LBPERF=否 "
  },
  {
    "annotation_table":"24小时尿蛋白定量",
    "metadata_table":"LBUPQ",
    "annotation_variable":"采样日期",
    "metadata_variable":"LBDAT",
    "SDTM_Domain":"LB",
    "SDTM_Variable":"LBDTC"
  },
  {
    "annotation_table":"24小时尿蛋白定量",
    "metadata_table":"LBUPQ",
    "annotation_variable":"采样时间（24小时制）",
    "metadata_variable":"LBTIM",
    "SDTM_Domain":"LB",
    "SDTM_Variable":"LBDTC"
  },
  {
    "annotation_table":"24小时尿蛋白定量",
    "metadata_table":"LBUPQ",
    "annotation_variable":"实验室动态年龄（隐藏变量）",
    "metadata_variable":"LBAGE",
    "SDTM_Domain":null,
    "SDTM_Variable":null
  },
  {
    "annotation_table":"24小时尿蛋白定量",
    "metadata_table":"LBUPQ",
    "annotation_variable":"24小时尿蛋白定量",
    "metadata_variable":"UPQ",
    "SDTM_Domain":"LB",
    "SDTM_Variable":"LBORRES when LBTESTCD=PROTEXR"
  },
  {
    "annotation_table":"尿常规",
    "metadata_table":"LBU",
    "annotation_variable":"是否完成尿常规检查？",
    "metadata_variable":"LBPERF",
    "SDTM_Domain":"LB",
    "SDTM_Variable":"LBSTAT=未查 if [RAW]LBPERF=否 "
  },
  {
    "annotation_table":"尿常规",
    "metadata_table":"LBU",
    "annotation_variable":"采样日期",
    "metadata_variable":"LBDAT",
    "SDTM_Domain":"LB",
    "SDTM_Variable":"LBDTC"
  },
  {
    "annotation_table":"尿常规",
    "metadata_table":"LBU",
    "annotation_variable":"采样时间（24小时制）",
    "metadata_variable":"LBTIM",
    "SDTM_Domain":"LB",
    "SDTM_Variable":"LBDTC"
  },
  {
    "annotation_table":"尿常规",
    "metadata_table":"LBU",
    "annotation_variable":"检查项目",
    "metadata_variable":"LBTEST",
    "SDTM_Domain":"LB",
    "SDTM_Variable":"LBTEST"
  },
  {
    "annotation_table":"尿常规",
    "metadata_table":"LBU",
    "annotation_variable":"结果",
    "metadata_variable":"LBORRES",
    "SDTM_Domain":"LB",
    "SDTM_Variable":"LBORRES"
  },
  {
    "annotation_table":"尿常规",
    "metadata_table":"LBU",
    "annotation_variable":"单位",
    "metadata_variable":"LBORRESU",
    "SDTM_Domain":"LB",
    "SDTM_Variable":"LBORRESU"
  },
  {
    "annotation_table":"尿常规",
    "metadata_table":"LBU",
    "annotation_variable":"临床意义评价",
    "metadata_variable":"LBCLSI",
    "SDTM_Domain":"LB",
    "SDTM_Variable":"QVAL when QNAM=LBCLSI"
  },
  {
    "annotation_table":"尿常规",
    "metadata_table":"LBU",
    "annotation_variable":"异常有临床意义，请描述",
    "metadata_variable":"LBDESC",
    "SDTM_Domain":"LB",
    "SDTM_Variable":"QVAL when QNAM=LBDESC"
  },
  {
    "annotation_table":"尿常规",
    "metadata_table":"LBU",
    "annotation_variable":"参考范围下限值",
    "metadata_variable":"LBORNRLO",
    "SDTM_Domain":"LB",
    "SDTM_Variable":"LBORNRLO"
  },
  {
    "annotation_table":"尿常规",
    "metadata_table":"LBU",
    "annotation_variable":"参考范围上限值",
    "metadata_variable":"LBORNRHI",
    "SDTM_Domain":"LB",
    "SDTM_Variable":"LBORNRHI"
  },
  {
    "annotation_table":"入排标准",
    "metadata_table":"IE",
    "annotation_variable":"受试者\/参与者是否符合所有的入选标准且不符合任何一条排除标准？",
    "metadata_variable":"IEYN",
    "SDTM_Domain":null,
    "SDTM_Variable":"NOT SUBMITTED"
  },
  {
    "annotation_table":"入排标准",
    "metadata_table":"IE",
    "annotation_variable":"入排标准类型",
    "metadata_variable":"IECAT",
    "SDTM_Domain":"IE",
    "SDTM_Variable":"IECAT"
  },
  {
    "annotation_table":"入排标准",
    "metadata_table":"IE",
    "annotation_variable":"入选\/排除标准编号",
    "metadata_variable":"IETESTCD",
    "SDTM_Domain":"IE",
    "SDTM_Variable":"IETESTCD"
  },
  {
    "annotation_table":"入组信息\/随机信息",
    "metadata_table":"ENROL",
    "annotation_variable":"受试者\/参与者是否随机？<适用随机项目>",
    "metadata_variable":"RANDYN",
    "SDTM_Domain":"DS",
    "SDTM_Variable":"DSCAT\/DSDECOD"
  },
  {
    "annotation_table":"入组信息\/随机信息",
    "metadata_table":"ENROL",
    "annotation_variable":"随机日期<适用随机项目>",
    "metadata_variable":"RANDDAT",
    "SDTM_Domain":"DS",
    "SDTM_Variable":"DSSTDTC"
  },
  {
    "annotation_table":"入组信息\/随机信息",
    "metadata_table":"ENROL",
    "annotation_variable":"随机号<适用随机项目>",
    "metadata_variable":"RAND_ID",
    "SDTM_Domain":"DS",
    "SDTM_Variable":"QVAL when QNAM=RANDNO"
  },
  {
    "annotation_table":"入组信息\/随机信息",
    "metadata_table":"ENROL",
    "annotation_variable":"受试者\/参与者是否入组？<适用非随机项目>",
    "metadata_variable":"ENRYN",
    "SDTM_Domain":"DS",
    "SDTM_Variable":"DSCAT\/DSDECOD"
  },
  {
    "annotation_table":"入组信息\/随机信息",
    "metadata_table":"ENROL",
    "annotation_variable":"若否，未成功<入组\/随机>的主要原因<根据项目选择适用名称>",
    "metadata_variable":"ENRREAS",
    "SDTM_Domain":"DS",
    "SDTM_Variable":"DSTERM"
  },
  {
    "annotation_table":"入组信息\/随机信息",
    "metadata_table":"ENROL",
    "annotation_variable":"未成功<入组\/随机>的原因为其他，请详述<根据项目选择适用名称>",
    "metadata_variable":"ENRROTH",
    "SDTM_Domain":"DS",
    "SDTM_Variable":"QVAL when QNAM=DSREAOTH"
  },
  {
    "annotation_table":"入组信息\/随机信息",
    "metadata_table":"ENROL",
    "annotation_variable":"试验阶段",
    "metadata_variable":"ENRPHASE",
    "SDTM_Domain":"DM",
    "SDTM_Variable":"QVAL when QNAM=PHASE"
  },
  {
    "annotation_table":"入组信息\/随机信息",
    "metadata_table":"ENROL",
    "annotation_variable":"队列",
    "metadata_variable":"COHORT",
    "SDTM_Domain":"DM",
    "SDTM_Variable":"QVAL when QNAM=COHORT"
  },
  {
    "annotation_table":"入组信息\/随机信息",
    "metadata_table":"ENROL",
    "annotation_variable":"剂量组",
    "metadata_variable":"DOSE",
    "SDTM_Domain":"DM",
    "SDTM_Variable":"QVAL when QNAM=ENRDOSE"
  },
  {
    "annotation_table":"入组信息\/随机信息",
    "metadata_table":"ENROL",
    "annotation_variable":"若为其他，请填写（mg）",
    "metadata_variable":"DOSEOTH",
    "SDTM_Domain":"DM",
    "SDTM_Variable":"QVAL when QNAM=ENRDOSE"
  },
  {
    "annotation_table":"试验药物用药情况",
    "metadata_table":"EX",
    "annotation_variable":"给药开始日期",
    "metadata_variable":"EXSTDAT",
    "SDTM_Domain":"EC|EX",
    "SDTM_Variable":"ECSTDTC|EXSTDTC"
  },
  {
    "annotation_table":"试验药物用药情况",
    "metadata_table":"EX",
    "annotation_variable":"给药结束日期",
    "metadata_variable":"EXENDAT",
    "SDTM_Domain":"EC|EX",
    "SDTM_Variable":"ECENDTC|EXENDTC"
  },
  {
    "annotation_table":"试验药物用药情况",
    "metadata_table":"EX",
    "annotation_variable":"理论单次给药剂量（mg）\/每日剂量",
    "metadata_variable":"EXDOSRGM",
    "SDTM_Domain":"EC",
    "SDTM_Variable":"ECDOSE when ECMOOD=预计"
  },
  {
    "annotation_table":"试验药物用药情况",
    "metadata_table":"EX",
    "annotation_variable":"理论给药频率",
    "metadata_variable":"EXRGMFRQ",
    "SDTM_Domain":"EC",
    "SDTM_Variable":"ECDOSFRQ when ECMOOD=预计"
  },
  {
    "annotation_table":"试验药物用药情况",
    "metadata_table":"EX",
    "annotation_variable":"其他理论给药频率",
    "metadata_variable":"EXRGMFRO",
    "SDTM_Domain":"EC",
    "SDTM_Variable":"ECDOSFRQ when ECMOOD=预计"
  },
  {
    "annotation_table":"试验药物用药情况",
    "metadata_table":"EX",
    "annotation_variable":"实际单次给药剂量（mg）\/每日剂量",
    "metadata_variable":"EXDSTXT",
    "SDTM_Domain":"EC|EX",
    "SDTM_Variable":"ECDOSE when ECMOOD=已执行|EXDOSE"
  },
  {
    "annotation_table":"试验药物用药情况",
    "metadata_table":"EX",
    "annotation_variable":"实际给药频率",
    "metadata_variable":"EXDOSFRQ",
    "SDTM_Domain":"EC|EX",
    "SDTM_Variable":"ECDOSFRQ when ECMOOD=已执行|EXDOSFRQ"
  },
  {
    "annotation_table":"试验药物用药情况",
    "metadata_table":"EX",
    "annotation_variable":"其他实际给药频率",
    "metadata_variable":"EXDOSFRO",
    "SDTM_Domain":"EC|EX",
    "SDTM_Variable":"ECDOSFRQ when ECMOOD=已执行|EXDOSFRQ"
  },
  {
    "annotation_table":"试验药物用药情况",
    "metadata_table":"EX",
    "annotation_variable":"是否调整剂量",
    "metadata_variable":"EXDOSADJ",
    "SDTM_Domain":"EC",
    "SDTM_Variable":"QVAL when QNAM=ADJYN when ECMOOD=已执行"
  },
  {
    "annotation_table":"试验药物用药情况",
    "metadata_table":"EX",
    "annotation_variable":"剂量调整原因",
    "metadata_variable":"EXADJ",
    "SDTM_Domain":"EC|EX",
    "SDTM_Variable":"ECADJ|EXADJ"
  },
  {
    "annotation_table":"试验药物用药情况",
    "metadata_table":"EX",
    "annotation_variable":"若剂量调整原因为不良事件，请填写不良事件",
    "metadata_variable":"ADJAENO",
    "SDTM_Domain":"EC",
    "SDTM_Variable":"QVAL when QNAM=ADJAENO when ECMOOD=已执行"
  },
  {
    "annotation_table":"试验药物用药情况",
    "metadata_table":"EX",
    "annotation_variable":"若剂量调整原因为其他，请填写其他原因",
    "metadata_variable":"ADJROTH",
    "SDTM_Domain":"EC",
    "SDTM_Variable":"QVAL when QNAM=ADJROTH when ECMOOD=已执行"
  },
  {
    "annotation_table":"试验药物用药情况",
    "metadata_table":"EX",
    "annotation_variable":"是否有未知日期的漏服或多服",
    "metadata_variable":"EXUKYN",
    "SDTM_Domain":"EC",
    "SDTM_Variable":"QVAL when QNAM=EXUKYN when ECMOOD=已执行"
  },
  {
    "annotation_table":"试验药物用药情况",
    "metadata_table":"EX",
    "annotation_variable":"漏服或多服数量（mg）",
    "metadata_variable":"EXUKAMT",
    "SDTM_Domain":"EC",
    "SDTM_Variable":"QVAL when QNAM=EXUKAMT when ECMOOD=已执行"
  },
  {
    "annotation_table":"试验药物用药情况",
    "metadata_table":"EX",
    "annotation_variable":"用药过程中是否有方案违背",
    "metadata_variable":"EXPDYN",
    "SDTM_Domain":"EC",
    "SDTM_Variable":"QVAL when QNAM=EXPDYN when ECMOOD=已执行"
  },
  {
    "annotation_table":"试验药物用药情况",
    "metadata_table":"EX1",
    "annotation_variable":"是否给药？",
    "metadata_variable":"EXYN",
    "SDTM_Domain":"EC|EX",
    "SDTM_Variable":"ECOCCUR when ECTRT=\"DRUG xx\"|EXTRT=\"DRUG xx\""
  },
  {
    "annotation_table":"试验药物用药情况",
    "metadata_table":"EX1",
    "annotation_variable":"若否，请选择原因",
    "metadata_variable":"EXREAS",
    "SDTM_Domain":"EC",
    "SDTM_Variable":"ECREASOC when ECMOOD=已执行"
  },
  {
    "annotation_table":"试验药物用药情况",
    "metadata_table":"EX1",
    "annotation_variable":"若为不良事件，请填写不良事件",
    "metadata_variable":"EXAENO",
    "SDTM_Domain":"EC",
    "SDTM_Variable":"QVAL when QNAM=ECREAENO when ECMOOD=已执行"
  },
  {
    "annotation_table":"试验药物用药情况",
    "metadata_table":"EX1",
    "annotation_variable":"若为其他，请说明",
    "metadata_variable":"EXROTH",
    "SDTM_Domain":"EC",
    "SDTM_Variable":"QVAL when QNAM=ECREAOTH when ECMOOD=已执行"
  },
  {
    "annotation_table":"试验药物用药情况",
    "metadata_table":"EX1",
    "annotation_variable":"注射部位<适用于皮下注射的项目>",
    "metadata_variable":"EXLOC",
    "SDTM_Domain":"EC|EX",
    "SDTM_Variable":"ECLOC|EXLOC"
  },
  {
    "annotation_table":"试验药物用药情况",
    "metadata_table":"EX1",
    "annotation_variable":"剂量水平（mg\/kg）",
    "metadata_variable":"EXDOSE",
    "SDTM_Domain":"EC",
    "SDTM_Variable":"ECDOSE when ECMOOD=预计"
  },
  {
    "annotation_table":"试验药物用药情况",
    "metadata_table":"EX1",
    "annotation_variable":"其他剂量水平（mg\/kg）",
    "metadata_variable":"EXDOSOTH",
    "SDTM_Domain":"EC",
    "SDTM_Variable":"ECDOSE when ECMOOD=预计"
  },
  {
    "annotation_table":"试验药物用药情况",
    "metadata_table":"EX1",
    "annotation_variable":"理论给药总剂量（mg）",
    "metadata_variable":"EXDOSRGM",
    "SDTM_Domain":"EC",
    "SDTM_Variable":"QVAL when QNAM=ECTDOSE when ECMOOD=已执行"
  },
  {
    "annotation_table":"试验药物用药情况",
    "metadata_table":"EX1",
    "annotation_variable":"实际给药总剂量（mg）",
    "metadata_variable":"EXDSTXT",
    "SDTM_Domain":"EC|EX",
    "SDTM_Variable":"ECDOSE when ECMOOD=已执行|EXDOSE"
  },
  {
    "annotation_table":"试验药物用药情况",
    "metadata_table":"EX1",
    "annotation_variable":"给药开始日期",
    "metadata_variable":"EXSTDAT",
    "SDTM_Domain":"EC|EX",
    "SDTM_Variable":"ECSTDTC|EXSTDTC"
  },
  {
    "annotation_table":"试验药物用药情况",
    "metadata_table":"EX1",
    "annotation_variable":"给药开始时间（24小时制）",
    "metadata_variable":"EXSTTIM",
    "SDTM_Domain":"EC|EX",
    "SDTM_Variable":"ECSTDTC|EXSTDTC"
  },
  {
    "annotation_table":"试验药物用药情况",
    "metadata_table":"EX1",
    "annotation_variable":"给药结束日期",
    "metadata_variable":"EXENDAT",
    "SDTM_Domain":"EC|EX",
    "SDTM_Variable":"ECENDTC|EXENDTC"
  },
  {
    "annotation_table":"试验药物用药情况",
    "metadata_table":"EX1",
    "annotation_variable":"给药结束时间（24小时制）",
    "metadata_variable":"EXENTIM",
    "SDTM_Domain":"EC|EX",
    "SDTM_Variable":"ECENDTC|EXENDTC"
  },
  {
    "annotation_table":"试验药物用药情况",
    "metadata_table":"EX1",
    "annotation_variable":"对本次用药采取的措施",
    "metadata_variable":"EXACN",
    "SDTM_Domain":"EC",
    "SDTM_Variable":"QVAL when QNAM=ECACN when ECMOOD=已执行"
  },
  {
    "annotation_table":"试验药物用药情况",
    "metadata_table":"EX1",
    "annotation_variable":"对本次用药采取措施的原因",
    "metadata_variable":"EXACNREA",
    "SDTM_Domain":"EC",
    "SDTM_Variable":"QVAL when QNAM=ECACREAS when ECMOOD=已执行"
  },
  {
    "annotation_table":"试验药物用药情况",
    "metadata_table":"EX1",
    "annotation_variable":"若为不良事件，请填写不良事件",
    "metadata_variable":"EXACAENO",
    "SDTM_Domain":"EC",
    "SDTM_Variable":"QVAL when QNAM=ECACAENO when ECMOOD=已执行"
  },
  {
    "annotation_table":"试验药物用药情况",
    "metadata_table":"EX1",
    "annotation_variable":"若为其他，请说明",
    "metadata_variable":"EXACNOTH",
    "SDTM_Domain":"EC",
    "SDTM_Variable":"QVAL when QNAM=ECACNOTH when ECMOOD=已执行"
  },
  {
    "annotation_table":"试验药物用药情况",
    "metadata_table":"EX1",
    "annotation_variable":"中断输注时间（24小时制）",
    "metadata_variable":"EXINTTIM",
    "SDTM_Domain":"EC",
    "SDTM_Variable":"QVAL when QNAM=ECINTDTC when ECMOOD=已执行"
  },
  {
    "annotation_table":"试验药物用药情况",
    "metadata_table":"EX1",
    "annotation_variable":"恢复输注时间（24小时制）",
    "metadata_variable":"EXRECTIM",
    "SDTM_Domain":"EC",
    "SDTM_Variable":"QVAL when QNAM=ECRECDTC when ECMOOD=已执行"
  },
  {
    "annotation_table":"治疗结束页",
    "metadata_table":"EOT",
    "annotation_variable":"治疗结束日期",
    "metadata_variable":"EOTDAT",
    "SDTM_Domain":"DS",
    "SDTM_Variable":"DSSTDTC"
  },
  {
    "annotation_table":"治疗结束页",
    "metadata_table":"EOT",
    "annotation_variable":"治疗结束原因",
    "metadata_variable":"EOTREAS",
    "SDTM_Domain":"DS",
    "SDTM_Variable":"DSTERM"
  },
  {
    "annotation_table":"治疗结束页",
    "metadata_table":"EOT",
    "annotation_variable":"若为不良事件，请填写不良事件",
    "metadata_variable":"EOTAENO",
    "SDTM_Domain":"DS",
    "SDTM_Variable":"QVAL when QNAM=DSAENO"
  },
  {
    "annotation_table":"治疗结束页",
    "metadata_table":"EOT",
    "annotation_variable":"若为研究者认为无法继续研究治疗的其他原因，请详述",
    "metadata_variable":"EOTDIS",
    "SDTM_Domain":"DS",
    "SDTM_Variable":"QVAL when QNAM=DSPIREAS"
  },
  {
    "annotation_table":"治疗结束页",
    "metadata_table":"EOT",
    "annotation_variable":"若为其他，请详述",
    "metadata_variable":"EOTROTH",
    "SDTM_Domain":"DS",
    "SDTM_Variable":"QVAL when QNAM=DSREAOTH"
  },
  {
    "annotation_table":"研究结束页",
    "metadata_table":"DS",
    "annotation_variable":"研究结束日期",
    "metadata_variable":"DSDAT",
    "SDTM_Domain":"DS",
    "SDTM_Variable":"DSSTDTC"
  },
  {
    "annotation_table":"研究结束页",
    "metadata_table":"DS",
    "annotation_variable":"研究结束原因",
    "metadata_variable":"DSREAS",
    "SDTM_Domain":"DS",
    "SDTM_Variable":"DSTERM"
  },
  {
    "annotation_table":"研究结束页",
    "metadata_table":"DS",
    "annotation_variable":"若为不良事件，请填写不良事件",
    "metadata_variable":"DSAENO",
    "SDTM_Domain":"DS",
    "SDTM_Variable":"QVAL when QNAM=DSAENO"
  },
  {
    "annotation_table":"研究结束页",
    "metadata_table":"DS",
    "annotation_variable":"若为研究者认为其他有必要退出研究的情况，请详述",
    "metadata_variable":"DSDIS",
    "SDTM_Domain":"DS",
    "SDTM_Variable":"QVAL when QNAM=DSPIREAS"
  },
  {
    "annotation_table":"研究结束页",
    "metadata_table":"DS",
    "annotation_variable":"若为其他，请详述",
    "metadata_variable":"DSROTH",
    "SDTM_Domain":"DS",
    "SDTM_Variable":"QVAL when QNAM=DSREAOTH"
  },
  {
    "annotation_table":"研究结束页",
    "metadata_table":"DS",
    "annotation_variable":"若受试者\/参与者失访，最后一次获知存活的日期<Optional>",
    "metadata_variable":"DSOSDAT",
    "SDTM_Domain":"DS",
    "SDTM_Variable":"QVAL when QNAM=DSLSTDTC"
  },
  {
    "annotation_table":"妊娠检查",
    "metadata_table":"RP",
    "annotation_variable":"是否进行妊娠检查？",
    "metadata_variable":"RPPERF",
    "SDTM_Domain":"LB",
    "SDTM_Variable":"LBSTAT=未查 if [RAW]RPPERF=否"
  },
  {
    "annotation_table":"妊娠检查",
    "metadata_table":"RP",
    "annotation_variable":"采样日期",
    "metadata_variable":"RPDAT",
    "SDTM_Domain":"LB",
    "SDTM_Variable":"LBDTC"
  },
  {
    "annotation_table":"妊娠检查",
    "metadata_table":"RP",
    "annotation_variable":"样本类型",
    "metadata_variable":"RPTYP",
    "SDTM_Domain":"LB",
    "SDTM_Variable":"LBSPEC"
  },
  {
    "annotation_table":"妊娠检查",
    "metadata_table":"RP",
    "annotation_variable":"检查结果",
    "metadata_variable":"RPRES",
    "SDTM_Domain":"LB",
    "SDTM_Variable":"LBORRES when LBTESTCD=HCG"
  },
  {
    "annotation_table":"妊娠检查",
    "metadata_table":"RP",
    "annotation_variable":"是否为妊娠状态",
    "metadata_variable":"RPST",
    "SDTM_Domain":"LB",
    "SDTM_Variable":"QVAL when QNAM=RPST"
  },
  {
    "annotation_table":"病毒学检查",
    "metadata_table":"VIR",
    "annotation_variable":"是否进行病毒学检查？",
    "metadata_variable":"VIRPERF",
    "SDTM_Domain":"MB",
    "SDTM_Variable":"MBSTAT=未查 if [RAW]VIRPERF=否"
  },
  {
    "annotation_table":"病毒学检查",
    "metadata_table":"VIR",
    "annotation_variable":"采样日期",
    "metadata_variable":"VIRDAT",
    "SDTM_Domain":"MB",
    "SDTM_Variable":"MBDTC"
  },
  {
    "annotation_table":"病毒学检查",
    "metadata_table":"VIR",
    "annotation_variable":"检查项目",
    "metadata_variable":"VIRTEST",
    "SDTM_Domain":"MB",
    "SDTM_Variable":"MBTEST"
  },
  {
    "annotation_table":"病毒学检查",
    "metadata_table":"VIR",
    "annotation_variable":"结果",
    "metadata_variable":"VIRRES",
    "SDTM_Domain":"MB",
    "SDTM_Variable":"MBORRES\/MBSTAT=未查 if [RAW]VIRRES=未查"
  },
  {
    "annotation_table":"HBV DNA",
    "metadata_table":"HBV",
    "annotation_variable":"是否进行HBV DNA检查？",
    "metadata_variable":"HBVPERF",
    "SDTM_Domain":"MB",
    "SDTM_Variable":"MBSTAT=未查 if [RAW]HBVPERF=否"
  },
  {
    "annotation_table":"HBV DNA",
    "metadata_table":"HBV",
    "annotation_variable":"采样日期",
    "metadata_variable":"HBVDAT",
    "SDTM_Domain":"MB",
    "SDTM_Variable":"MBDTC"
  },
  {
    "annotation_table":"HBV DNA",
    "metadata_table":"HBV",
    "annotation_variable":"定性结果",
    "metadata_variable":"HBVRES",
    "SDTM_Domain":"MB",
    "SDTM_Variable":"MBORRES when MBTESTCD=HBDNA 且 MBSCAT=定性结果"
  },
  {
    "annotation_table":"HBV DNA",
    "metadata_table":"HBV",
    "annotation_variable":"定量结果",
    "metadata_variable":"HBVORRES",
    "SDTM_Domain":"MB",
    "SDTM_Variable":"MBORRES when MBTESTCD=HBDNA 且 MBSCAT=定量结果"
  },
  {
    "annotation_table":"HBV DNA",
    "metadata_table":"HBV",
    "annotation_variable":"单位",
    "metadata_variable":"HBVUNT",
    "SDTM_Domain":"MB",
    "SDTM_Variable":"MBORRESU when MBTESTCD=HBDNA"
  },
  {
    "annotation_table":"HBV DNA",
    "metadata_table":"HBV",
    "annotation_variable":"其他单位",
    "metadata_variable":"HBVUOTH",
    "SDTM_Domain":"MB",
    "SDTM_Variable":"MBORRESU when MBTESTCD=HBDNA"
  },
  {
    "annotation_table":"HCV RNA",
    "metadata_table":"HCV",
    "annotation_variable":"是否进行HCV RNA检查？",
    "metadata_variable":"HCVPERF",
    "SDTM_Domain":"MB",
    "SDTM_Variable":"MBSTAT=未查 if [RAW]HCVPERF=否"
  },
  {
    "annotation_table":"HCV RNA",
    "metadata_table":"HCV",
    "annotation_variable":"采样日期",
    "metadata_variable":"HCVDAT",
    "SDTM_Domain":"MB",
    "SDTM_Variable":"MBDTC"
  },
  {
    "annotation_table":"HCV RNA",
    "metadata_table":"HCV",
    "annotation_variable":"结果",
    "metadata_variable":"HCVRES",
    "SDTM_Domain":"MB",
    "SDTM_Variable":"MBORRES when MBTESTCD=HCRNA"
  },
  {
    "annotation_table":"HCV RNA",
    "metadata_table":"HCV",
    "annotation_variable":"单位",
    "metadata_variable":"HCVUNT",
    "SDTM_Domain":"MB",
    "SDTM_Variable":"MBORRESU when MBTESTCD=HCRNA"
  },
  {
    "annotation_table":"HCV RNA",
    "metadata_table":"HCV",
    "annotation_variable":"其他单位",
    "metadata_variable":"HCVUOTH",
    "SDTM_Domain":"MB",
    "SDTM_Variable":"MBORRESU when MBTESTCD=HCRNA"
  },
  {
    "annotation_table":"体重",
    "metadata_table":"WT",
    "annotation_variable":"是否进行体重测量？",
    "metadata_variable":"WTPERF",
    "SDTM_Domain":"VS",
    "SDTM_Variable":"VSSTAT=未查 if [RAW]WTPERF=否"
  },
  {
    "annotation_table":"体重",
    "metadata_table":"WT",
    "annotation_variable":"测量日期",
    "metadata_variable":"WTDAT",
    "SDTM_Domain":"VS",
    "SDTM_Variable":"VSDTC"
  },
  {
    "annotation_table":"体重",
    "metadata_table":"WT",
    "annotation_variable":"体重（kg）",
    "metadata_variable":"WEIGHT",
    "SDTM_Domain":"VS",
    "SDTM_Variable":"VSORRES\/VSORRESU when VSTESTCD=WEIGHT"
  },
  {
    "annotation_table":"身高和体重",
    "metadata_table":"HW",
    "annotation_variable":"是否进行身高和体重检查？",
    "metadata_variable":"HWPERF",
    "SDTM_Domain":"VS",
    "SDTM_Variable":"VSSTAT=未查 if [RAW]HWPERF=否"
  },
  {
    "annotation_table":"身高和体重",
    "metadata_table":"HW",
    "annotation_variable":"检查日期",
    "metadata_variable":"HWDAT",
    "SDTM_Domain":"VS",
    "SDTM_Variable":"VSDTC"
  },
  {
    "annotation_table":"身高和体重",
    "metadata_table":"HW",
    "annotation_variable":"身高（cm）",
    "metadata_variable":"HEIGHT",
    "SDTM_Domain":"VS",
    "SDTM_Variable":"VSORRES\/VSORRESU when VSTESTCD=HEIGHT"
  },
  {
    "annotation_table":"身高和体重",
    "metadata_table":"HW",
    "annotation_variable":"体重（kg）",
    "metadata_variable":"WEIGHT",
    "SDTM_Domain":"VS",
    "SDTM_Variable":"VSORRES\/VSORRESU when VSTESTCD=WEIGHT"
  },
  {
    "annotation_table":"身高和体重",
    "metadata_table":"HW",
    "annotation_variable":"BMI（kg\/m^2）",
    "metadata_variable":"BMI",
    "SDTM_Domain":"VS",
    "SDTM_Variable":"VSORRES\/VSORRESU when VSTESTCD=BMI"
  },
  {
    "annotation_table":"腰围",
    "metadata_table":"WL",
    "annotation_variable":"是否进行腰围测量？",
    "metadata_variable":"WLPERF",
    "SDTM_Domain":"VS",
    "SDTM_Variable":"VSSTAT=未查 if [RAW]WLPERF=否"
  },
  {
    "annotation_table":"腰围",
    "metadata_table":"WL",
    "annotation_variable":"测量日期",
    "metadata_variable":"WLDAT",
    "SDTM_Domain":"VS",
    "SDTM_Variable":"VSDTC"
  },
  {
    "annotation_table":"腰围",
    "metadata_table":"WL",
    "annotation_variable":"腰围（cm）",
    "metadata_variable":"WLRES",
    "SDTM_Domain":"VS",
    "SDTM_Variable":"VSORRES\/VSORRESU when VSTESTCD=WSTCIR"
  },
  {
    "annotation_table":"体格检查",
    "metadata_table":"PE",
    "annotation_variable":"是否进行体格检查？",
    "metadata_variable":"PEPERF",
    "SDTM_Domain":"PE",
    "SDTM_Variable":"PESTAT=未查 if [RAW]PEPERF=否"
  },
  {
    "annotation_table":"体格检查",
    "metadata_table":"PE",
    "annotation_variable":"检查日期",
    "metadata_variable":"PEDAT",
    "SDTM_Domain":"PE",
    "SDTM_Variable":"PEDTC"
  },
  {
    "annotation_table":"体格检查",
    "metadata_table":"PE",
    "annotation_variable":"检查时间（24小时制）",
    "metadata_variable":"PETIM",
    "SDTM_Domain":"PE",
    "SDTM_Variable":"PEDTC"
  },
  {
    "annotation_table":"体格检查",
    "metadata_table":"PE",
    "annotation_variable":"检查项目",
    "metadata_variable":"PETEST",
    "SDTM_Domain":"PE",
    "SDTM_Variable":"PETEST"
  },
  {
    "annotation_table":"体格检查",
    "metadata_table":"PE",
    "annotation_variable":"检查结果",
    "metadata_variable":"PERES",
    "SDTM_Domain":"PE",
    "SDTM_Variable":"PEORRES"
  },
  {
    "annotation_table":"体格检查",
    "metadata_table":"PE",
    "annotation_variable":"异常，请描述",
    "metadata_variable":"PEDESC",
    "SDTM_Domain":"PE",
    "SDTM_Variable":"QVAL when QNAM=PEDESC"
  },
  {
    "annotation_table":"心电图",
    "metadata_table":"EG",
    "annotation_variable":"是否进行<12导联>心电图检查？",
    "metadata_variable":"EGPERF",
    "SDTM_Domain":"EG",
    "SDTM_Variable":"EGSTAT=未查 if [RAW]EGPERF=否"
  },
  {
    "annotation_table":"心电图",
    "metadata_table":"EG",
    "annotation_variable":"检查日期",
    "metadata_variable":"EGDAT",
    "SDTM_Domain":"EG",
    "SDTM_Variable":"EGDTC"
  },
  {
    "annotation_table":"心电图",
    "metadata_table":"EG",
    "annotation_variable":"心率（bpm）",
    "metadata_variable":"HR",
    "SDTM_Domain":"EG",
    "SDTM_Variable":"EGORRES\/EGORRESU when EGTESTCD=EGHRMN"
  },
  {
    "annotation_table":"心电图",
    "metadata_table":"EG",
    "annotation_variable":"PR（ms）",
    "metadata_variable":"PR",
    "SDTM_Domain":"EG",
    "SDTM_Variable":"EGORRES\/EGORRESU when EGTESTCD=PRAG"
  },
  {
    "annotation_table":"心电图",
    "metadata_table":"EG",
    "annotation_variable":"QRS（ms）",
    "metadata_variable":"QRS",
    "SDTM_Domain":"EG",
    "SDTM_Variable":"EGORRES\/EGORRESU when EGTESTCD=QRSAG"
  },
  {
    "annotation_table":"心电图",
    "metadata_table":"EG",
    "annotation_variable":"QT间期（ms）",
    "metadata_variable":"QT",
    "SDTM_Domain":"EG",
    "SDTM_Variable":"EGORRES\/EGORRESU when EGTESTCD=QTAG"
  },
  {
    "annotation_table":"心电图",
    "metadata_table":"EG",
    "annotation_variable":"QTc（ms）",
    "metadata_variable":"QTC",
    "SDTM_Domain":"EG",
    "SDTM_Variable":"EGORRES\/EGORRESU when EGTESTCD=QTCUNS"
  },
  {
    "annotation_table":"心电图",
    "metadata_table":"EG",
    "annotation_variable":"QTcF间期（ms）",
    "metadata_variable":"QTCF",
    "SDTM_Domain":"EG",
    "SDTM_Variable":"EGORRES\/EGORRESU when EGTESTCD=QTCFAG"
  },
  {
    "annotation_table":"心电图",
    "metadata_table":"EG",
    "annotation_variable":"临床意义评价",
    "metadata_variable":"EGCLSI",
    "SDTM_Domain":"EG",
    "SDTM_Variable":"EGORRES when EGTESTCD=INTP"
  },
  {
    "annotation_table":"心电图",
    "metadata_table":"EG",
    "annotation_variable":"异常，请描述",
    "metadata_variable":"EGDESC",
    "SDTM_Domain":"EG",
    "SDTM_Variable":"QVAL when QNAM=EGDESC"
  },
  {
    "annotation_table":"心电图",
    "metadata_table":"EG1",
    "annotation_variable":"是否进行<12导联>心电图检查？",
    "metadata_variable":"EGPERF",
    "SDTM_Domain":"EG",
    "SDTM_Variable":"EGSTAT=未查 if [RAW]EGPERF=否"
  },
  {
    "annotation_table":"心电图",
    "metadata_table":"EG1",
    "annotation_variable":"检查时间点",
    "metadata_variable":"EGTPT",
    "SDTM_Domain":"EG",
    "SDTM_Variable":"EGTPT"
  },
  {
    "annotation_table":"心电图",
    "metadata_table":"EG1",
    "annotation_variable":"是否检查？",
    "metadata_variable":"EGYN",
    "SDTM_Domain":"EG",
    "SDTM_Variable":"EGSTAT=未查 if [RAW]EGYN=否"
  },
  {
    "annotation_table":"心电图",
    "metadata_table":"EG1",
    "annotation_variable":"检查日期",
    "metadata_variable":"EGDAT",
    "SDTM_Domain":"EG",
    "SDTM_Variable":"EGDTC"
  },
  {
    "annotation_table":"心电图",
    "metadata_table":"EG1",
    "annotation_variable":"检查时间（24小时制）",
    "metadata_variable":"EGTIM",
    "SDTM_Domain":"EG",
    "SDTM_Variable":"EGDTC"
  },
  {
    "annotation_table":"心电图",
    "metadata_table":"EG1",
    "annotation_variable":"心率（bpm）",
    "metadata_variable":"HR",
    "SDTM_Domain":"EG",
    "SDTM_Variable":"EGORRES\/EGORRESU when EGTESTCD=EGHRMN"
  },
  {
    "annotation_table":"心电图",
    "metadata_table":"EG1",
    "annotation_variable":"PR（ms）<optional>",
    "metadata_variable":"PR",
    "SDTM_Domain":"EG",
    "SDTM_Variable":"EGORRES\/EGORRESU when EGTESTCD=PRAG"
  },
  {
    "annotation_table":"心电图",
    "metadata_table":"EG1",
    "annotation_variable":"QRS（ms）<optional>",
    "metadata_variable":"QRS",
    "SDTM_Domain":"EG",
    "SDTM_Variable":"EGORRES\/EGORRESU when EGTESTCD=QRSAG"
  },
  {
    "annotation_table":"心电图",
    "metadata_table":"EG1",
    "annotation_variable":"QT间期（ms）<optional>",
    "metadata_variable":"QT",
    "SDTM_Domain":"EG",
    "SDTM_Variable":"EGORRES\/EGORRESU when EGTESTCD=QTAG"
  },
  {
    "annotation_table":"心电图",
    "metadata_table":"EG1",
    "annotation_variable":"QTc（ms）<optional>",
    "metadata_variable":"QTC",
    "SDTM_Domain":"EG",
    "SDTM_Variable":"EGORRES\/EGORRESU when EGTESTCD=QTCUNS"
  },
  {
    "annotation_table":"心电图",
    "metadata_table":"EG1",
    "annotation_variable":"QTcF间期（ms）<optional>",
    "metadata_variable":"QTCF",
    "SDTM_Domain":"EG",
    "SDTM_Variable":"EGORRES\/EGORRESU when EGTESTCD=QTCFAG"
  },
  {
    "annotation_table":"心电图",
    "metadata_table":"EG1",
    "annotation_variable":"临床意义评价",
    "metadata_variable":"EGCLSI",
    "SDTM_Domain":"EG",
    "SDTM_Variable":"EGORRES when EGTESTCD=INTP"
  },
  {
    "annotation_table":"心电图",
    "metadata_table":"EG1",
    "annotation_variable":"异常，请描述",
    "metadata_variable":"EGDESC",
    "SDTM_Domain":"EG",
    "SDTM_Variable":"QVAL when QNAM=EGDESC"
  },
  {
    "annotation_table":"心电图",
    "metadata_table":"EG2",
    "annotation_variable":"是否进行12-导联心电图检查？",
    "metadata_variable":"EGPERF",
    "SDTM_Domain":"EG",
    "SDTM_Variable":"EGSTAT=未查 if [RAW]EGPERF=否"
  },
  {
    "annotation_table":"心电图",
    "metadata_table":"EG2",
    "annotation_variable":"序号",
    "metadata_variable":"EGSN",
    "SDTM_Domain":"EG",
    "SDTM_Variable":"EGSPID"
  },
  {
    "annotation_table":"心电图",
    "metadata_table":"EG2",
    "annotation_variable":"是否检查?",
    "metadata_variable":"EGYN",
    "SDTM_Domain":"EG",
    "SDTM_Variable":"EGSTAT=未查 if [RAW]EGYN=否"
  },
  {
    "annotation_table":"心电图",
    "metadata_table":"EG2",
    "annotation_variable":"检查日期",
    "metadata_variable":"EGDAT",
    "SDTM_Domain":"EG",
    "SDTM_Variable":"EGDTC"
  },
  {
    "annotation_table":"心电图",
    "metadata_table":"EG2",
    "annotation_variable":"检查时间（24小时制）",
    "metadata_variable":"EGTIM",
    "SDTM_Domain":"EG",
    "SDTM_Variable":"EGDTC"
  },
  {
    "annotation_table":"心电图",
    "metadata_table":"EG2",
    "annotation_variable":"心率（bpm）",
    "metadata_variable":"HR",
    "SDTM_Domain":"EG",
    "SDTM_Variable":"EGORRES\/EGORRESU when EGTESTCD=EGHRMN"
  },
  {
    "annotation_table":"心电图",
    "metadata_table":"EG2",
    "annotation_variable":"PR（ms）",
    "metadata_variable":"PR",
    "SDTM_Domain":"EG",
    "SDTM_Variable":"EGORRES\/EGORRESU when EGTESTCD=PRAG"
  },
  {
    "annotation_table":"心电图",
    "metadata_table":"EG2",
    "annotation_variable":"QRS（ms）",
    "metadata_variable":"QRS",
    "SDTM_Domain":"EG",
    "SDTM_Variable":"EGORRES\/EGORRESU when EGTESTCD=QRSAG"
  },
  {
    "annotation_table":"心电图",
    "metadata_table":"EG2",
    "annotation_variable":"QT间期（ms）",
    "metadata_variable":"QT",
    "SDTM_Domain":"EG",
    "SDTM_Variable":"EGORRES\/EGORRESU when EGTESTCD=QTAG"
  },
  {
    "annotation_table":"心电图",
    "metadata_table":"EG2",
    "annotation_variable":"QTc（ms）",
    "metadata_variable":"QTC",
    "SDTM_Domain":"EG",
    "SDTM_Variable":"EGORRES\/EGORRESU when EGTESTCD=QTCUNS"
  },
  {
    "annotation_table":"心电图",
    "metadata_table":"EG2",
    "annotation_variable":"QTcF（ms）",
    "metadata_variable":"QTCF",
    "SDTM_Domain":"EG",
    "SDTM_Variable":"EGORRES\/EGORRESU when EGTESTCD=QTCFAG"
  },
  {
    "annotation_table":"心电图",
    "metadata_table":"EG2",
    "annotation_variable":"QTcF平均值（ms）",
    "metadata_variable":"QTCFMEAN",
    "SDTM_Domain":"EG",
    "SDTM_Variable":"EGORRES\/EGORRESU  when EGTESTCD=QTCFM"
  },
  {
    "annotation_table":"心电图",
    "metadata_table":"EG2",
    "annotation_variable":"临床意义评价",
    "metadata_variable":"EGCLSI",
    "SDTM_Domain":"EG",
    "SDTM_Variable":"EGORRES when EGTESTCD=INTP"
  },
  {
    "annotation_table":"心电图",
    "metadata_table":"EG2",
    "annotation_variable":"异常，请描述",
    "metadata_variable":"EGDESC",
    "SDTM_Domain":"EG",
    "SDTM_Variable":"QVAL when QNAM=EGDESC"
  },
  {
    "annotation_table":"生命体征",
    "metadata_table":"VS",
    "annotation_variable":"是否进行生命体征检查？",
    "metadata_variable":"VSPERF",
    "SDTM_Domain":"VS",
    "SDTM_Variable":"VSSTAT=未查 if [RAW]VSPERF=否"
  },
  {
    "annotation_table":"生命体征",
    "metadata_table":"VS",
    "annotation_variable":"检查日期",
    "metadata_variable":"VSDAT",
    "SDTM_Domain":"VS",
    "SDTM_Variable":"VSDTC"
  },
  {
    "annotation_table":"生命体征",
    "metadata_table":"VS",
    "annotation_variable":"检查时间（24小时制）",
    "metadata_variable":"VSTIM",
    "SDTM_Domain":"VS",
    "SDTM_Variable":"VSDTC"
  },
  {
    "annotation_table":"生命体征",
    "metadata_table":"VS",
    "annotation_variable":"检查项目",
    "metadata_variable":"VSTEST",
    "SDTM_Domain":"VS",
    "SDTM_Variable":"VSTEST"
  },
  {
    "annotation_table":"生命体征",
    "metadata_table":"VS",
    "annotation_variable":"检查结果",
    "metadata_variable":"VSORRES",
    "SDTM_Domain":"VS",
    "SDTM_Variable":"VSORRES"
  },
  {
    "annotation_table":"生命体征",
    "metadata_table":"VS",
    "annotation_variable":"临床意义判定",
    "metadata_variable":"VSCLSI",
    "SDTM_Domain":"VS",
    "SDTM_Variable":"QVAL when QNAM=VSCLSI"
  },
  {
    "annotation_table":"生命体征",
    "metadata_table":"VS",
    "annotation_variable":"异常有临床意义，请描述",
    "metadata_variable":"VSDESC",
    "SDTM_Domain":"VS",
    "SDTM_Variable":"QVAL when QNAM=VSDESC"
  },
  {
    "annotation_table":"生命体征",
    "metadata_table":"VS",
    "annotation_variable":"是否进行生命体征检查？",
    "metadata_variable":"VSPERF",
    "SDTM_Domain":"VS",
    "SDTM_Variable":"VSSTAT=未查 if [RAW]VSPERF=否"
  },
  {
    "annotation_table":"生命体征",
    "metadata_table":"VS",
    "annotation_variable":"检查时间点",
    "metadata_variable":"VSTPT",
    "SDTM_Domain":"VS",
    "SDTM_Variable":"VSTPT"
  },
  {
    "annotation_table":"生命体征",
    "metadata_table":"VS",
    "annotation_variable":"是否检查？",
    "metadata_variable":"VSYN",
    "SDTM_Domain":"VS",
    "SDTM_Variable":"VSSTAT=未查 if [RAW]VSYN=否"
  },
  {
    "annotation_table":"生命体征",
    "metadata_table":"VS",
    "annotation_variable":"检查日期",
    "metadata_variable":"VSDAT",
    "SDTM_Domain":"VS",
    "SDTM_Variable":"VSDTC"
  },
  {
    "annotation_table":"生命体征",
    "metadata_table":"VS",
    "annotation_variable":"检查时间（24小时制）",
    "metadata_variable":"VSTIM",
    "SDTM_Domain":"VS",
    "SDTM_Variable":"VSDTC"
  },
  {
    "annotation_table":"生命体征",
    "metadata_table":"VS",
    "annotation_variable":"收缩压（mmHg）",
    "metadata_variable":"SYSBP",
    "SDTM_Domain":"VS",
    "SDTM_Variable":"VSORRES\/VSORRESU when VSTESTCD=SYSBP"
  },
  {
    "annotation_table":"生命体征",
    "metadata_table":"VS",
    "annotation_variable":"舒张压（mmHg）",
    "metadata_variable":"DIABP",
    "SDTM_Domain":"VS",
    "SDTM_Variable":"VSORRES\/VSORRESU when VSTESTCD=DIABP"
  },
  {
    "annotation_table":"生命体征",
    "metadata_table":"VS",
    "annotation_variable":"脉搏（次\/分）",
    "metadata_variable":"PULSE",
    "SDTM_Domain":"VS",
    "SDTM_Variable":"VSORRES\/VSORRESU when VSTESTCD=PULSE"
  },
  {
    "annotation_table":"生命体征",
    "metadata_table":"VS",
    "annotation_variable":"呼吸（次\/分）",
    "metadata_variable":"RESP",
    "SDTM_Domain":"VS",
    "SDTM_Variable":"VSORRES\/VSORRESU when VSTESTCD=RESP"
  },
  {
    "annotation_table":"生命体征",
    "metadata_table":"VS",
    "annotation_variable":"体温（℃）",
    "metadata_variable":"TEMP",
    "SDTM_Domain":"VS",
    "SDTM_Variable":"VSORRES\/VSORRESU when VSTESTCD=TEMP"
  },
  {
    "annotation_table":"生命体征",
    "metadata_table":"VS",
    "annotation_variable":"血氧饱和度（%）",
    "metadata_variable":"SPO",
    "SDTM_Domain":"VS",
    "SDTM_Variable":"VSORRES\/VSORRESU when VSTESTCD=OXYSAT"
  },
  {
    "annotation_table":"生命体征",
    "metadata_table":"VS",
    "annotation_variable":"临床意义判定",
    "metadata_variable":"VSCLSI",
    "SDTM_Domain":"VS",
    "SDTM_Variable":"VSORRES when VSTESTCD=INTP"
  },
  {
    "annotation_table":"生命体征",
    "metadata_table":"VS",
    "annotation_variable":"异常有临床意义，请描述",
    "metadata_variable":"VSDESC",
    "SDTM_Domain":"VS",
    "SDTM_Variable":"QVAL when QNAM=VSDESC"
  },
  {
    "annotation_table":"腹部B超",
    "metadata_table":"AU",
    "annotation_variable":"是否进行腹部B超检查？",
    "metadata_variable":"AUPERF",
    "SDTM_Domain":"PE",
    "SDTM_Variable":"PESTAT=未查 if [RAW]AUPERF=否"
  },
  {
    "annotation_table":"腹部B超",
    "metadata_table":"AU",
    "annotation_variable":"检查日期",
    "metadata_variable":"AUDAT",
    "SDTM_Domain":"PE",
    "SDTM_Variable":"PEDTC"
  },
  {
    "annotation_table":"腹部B超",
    "metadata_table":"AU",
    "annotation_variable":"检查项目",
    "metadata_variable":"AUTEST",
    "SDTM_Domain":"PE",
    "SDTM_Variable":"PETESTCD\/PETEST"
  },
  {
    "annotation_table":"腹部B超",
    "metadata_table":"AU",
    "annotation_variable":"检查结果",
    "metadata_variable":"AURES",
    "SDTM_Domain":"PE",
    "SDTM_Variable":"PEORRES"
  },
  {
    "annotation_table":"腹部B超",
    "metadata_table":"AU",
    "annotation_variable":"异常，请描述",
    "metadata_variable":"AUDESC",
    "SDTM_Domain":"PE",
    "SDTM_Variable":"QVAL when QNAM=PEDESC"
  },
  {
    "annotation_table":"超声心动图",
    "metadata_table":"UCG",
    "annotation_variable":"是否进行超声心动图检查？",
    "metadata_variable":"UCGPERF",
    "SDTM_Domain":"CV",
    "SDTM_Variable":"CVSTAT=未查 if [RAW]UCGPERF=否"
  },
  {
    "annotation_table":"超声心动图",
    "metadata_table":"UCG",
    "annotation_variable":"检查日期",
    "metadata_variable":"UCGDAT",
    "SDTM_Domain":"CV",
    "SDTM_Variable":"CVDTC"
  },
  {
    "annotation_table":"超声心动图",
    "metadata_table":"UCG",
    "annotation_variable":"左室射血分数（%）",
    "metadata_variable":"UCGORRES",
    "SDTM_Domain":"CV",
    "SDTM_Variable":"CVORRES when CVTESTCD=LVEF"
  },
  {
    "annotation_table":"超声心动图",
    "metadata_table":"UCG",
    "annotation_variable":"临床意义评价",
    "metadata_variable":"UCGCLSI",
    "SDTM_Domain":"CV",
    "SDTM_Variable":"QVAL when QNAM=CVCLSI"
  },
  {
    "annotation_table":"超声心动图",
    "metadata_table":"UCG",
    "annotation_variable":"异常，请描述",
    "metadata_variable":"UCGDESC",
    "SDTM_Domain":"CV",
    "SDTM_Variable":"QVAL when QNAM=CVDESC"
  },
  {
    "annotation_table":"胸部X线",
    "metadata_table":"IMA",
    "annotation_variable":"是否进行胸部X线检查？",
    "metadata_variable":"CXPERF",
    "SDTM_Domain":"PE",
    "SDTM_Variable":"PESTAT=未查 if [RAW]CXPERF=否"
  },
  {
    "annotation_table":"胸部X线",
    "metadata_table":"IMA",
    "annotation_variable":"检查日期",
    "metadata_variable":"CXDAT",
    "SDTM_Domain":"PE",
    "SDTM_Variable":"PEDTC"
  },
  {
    "annotation_table":"胸部X线",
    "metadata_table":"IMA",
    "annotation_variable":"检查结果",
    "metadata_variable":"CXRES",
    "SDTM_Domain":"PE",
    "SDTM_Variable":"PEORRES"
  },
  {
    "annotation_table":"胸部X线",
    "metadata_table":"IMA",
    "annotation_variable":"异常，请描述",
    "metadata_variable":"CXDESC",
    "SDTM_Domain":"PE",
    "SDTM_Variable":"QVAL when QNAM=PEDESC"
  },
  {
    "annotation_table":"胸部CT",
    "metadata_table":"IMA",
    "annotation_variable":"是否进行胸部CT检查？",
    "metadata_variable":"CTPERF",
    "SDTM_Domain":"PE",
    "SDTM_Variable":"PESTAT=未查 if [RAW]CTPERF=否"
  },
  {
    "annotation_table":"胸部CT",
    "metadata_table":"IMA",
    "annotation_variable":"检查日期",
    "metadata_variable":"CTDAT",
    "SDTM_Domain":"PE",
    "SDTM_Variable":"PEDTC"
  },
  {
    "annotation_table":"胸部CT",
    "metadata_table":"IMA",
    "annotation_variable":"检查结果",
    "metadata_variable":"CTRES",
    "SDTM_Domain":"PE",
    "SDTM_Variable":"PEORRES"
  },
  {
    "annotation_table":"胸部CT",
    "metadata_table":"IMA",
    "annotation_variable":"异常，请描述",
    "metadata_variable":"CTDESC",
    "SDTM_Domain":"PE",
    "SDTM_Variable":"QVAL when QNAM=PEDESC"
  },
  {
    "annotation_table":"心功能分级（NYHA）评估",
    "metadata_table":"NYHA",
    "annotation_variable":"是否进行心功能分级评估？",
    "metadata_variable":"NYHAPERF",
    "SDTM_Domain":"QS",
    "SDTM_Variable":"QSSTAT=未查 if [RAW]NYHAPERF=否"
  },
  {
    "annotation_table":"心功能分级（NYHA）评估",
    "metadata_table":"NYHA",
    "annotation_variable":"评估日期",
    "metadata_variable":"NYHADAT",
    "SDTM_Domain":"QS",
    "SDTM_Variable":"QSDTC"
  },
  {
    "annotation_table":"心功能分级（NYHA）评估",
    "metadata_table":"NYHA",
    "annotation_variable":"评估结果",
    "metadata_variable":"NYHARES",
    "SDTM_Domain":"QS",
    "SDTM_Variable":"QSORRES when QSTESTCD=NYHAC and QSCAT=NYHAC"
  },
  {
    "annotation_table":"药物滥用筛查\/尿液药物筛查",
    "metadata_table":"DAS",
    "annotation_variable":"是否进行药物滥用筛查？",
    "metadata_variable":"DASPERF",
    "SDTM_Domain":"LB",
    "SDTM_Variable":"LBSTAT=未查 if [RAW]DASPERF=否"
  },
  {
    "annotation_table":"药物滥用筛查\/尿液药物筛查",
    "metadata_table":"DAS",
    "annotation_variable":"检查日期",
    "metadata_variable":"DASDAT",
    "SDTM_Domain":"LB",
    "SDTM_Variable":"LBDTC"
  },
  {
    "annotation_table":"药物滥用筛查\/尿液药物筛查",
    "metadata_table":"DAS",
    "annotation_variable":"检查项目",
    "metadata_variable":"DASTEST",
    "SDTM_Domain":"LB",
    "SDTM_Variable":"LBTEST when LBCAT=尿药筛查"
  },
  {
    "annotation_table":"药物滥用筛查\/尿液药物筛查",
    "metadata_table":"DAS",
    "annotation_variable":"检查结果",
    "metadata_variable":"DASRES",
    "SDTM_Domain":"LB",
    "SDTM_Variable":"LBORRES when LBCAT=尿药筛查"
  },
  {
    "annotation_table":"烟酒史",
    "metadata_table":"SU",
    "annotation_variable":"是否有吸烟史？",
    "metadata_variable":"SUSMYN",
    "SDTM_Domain":"SU",
    "SDTM_Variable":"SUOCCUR when SUTRT=烟草"
  },
  {
    "annotation_table":"烟酒史",
    "metadata_table":"SU",
    "annotation_variable":"吸烟情况",
    "metadata_variable":"SUSMST",
    "SDTM_Domain":"SU",
    "SDTM_Variable":"QVAL when QNAM=SMSTAT"
  },
  {
    "annotation_table":"烟酒史",
    "metadata_table":"SU",
    "annotation_variable":"是否有饮酒史？",
    "metadata_variable":"SUDRYN",
    "SDTM_Domain":"SU",
    "SDTM_Variable":"SUOCCUR when SUTRT=酒精"
  },
  {
    "annotation_table":"烟酒史",
    "metadata_table":"SU",
    "annotation_variable":"饮酒情况",
    "metadata_variable":"SUDRST",
    "SDTM_Domain":"SU",
    "SDTM_Variable":"QVAL when QNAM=DRSTAT"
  },
  {
    "annotation_table":"家族史",
    "metadata_table":"FH",
    "annotation_variable":"是否有家族史？",
    "metadata_variable":"FHYN",
    "SDTM_Domain":null,
    "SDTM_Variable":"NOT SUBMITTED"
  },
  {
    "annotation_table":"家族史",
    "metadata_table":"FH",
    "annotation_variable":"与受试者\/参与者关系",
    "metadata_variable":"FHREL",
    "SDTM_Domain":"APMH",
    "SDTM_Variable":"SREL"
  },
  {
    "annotation_table":"家族史",
    "metadata_table":"FH",
    "annotation_variable":"其他关系，请说明",
    "metadata_variable":"FHRELOTH",
    "SDTM_Domain":"APMH",
    "SDTM_Variable":"QVAL when QNAM=SRELOTH"
  },
  {
    "annotation_table":"家族史",
    "metadata_table":"FH",
    "annotation_variable":"疾病名称",
    "metadata_variable":"FHTERM",
    "SDTM_Domain":"APMH",
    "SDTM_Variable":"MHTERM"
  },
  {
    "annotation_table":"个人史",
    "metadata_table":"PH",
    "annotation_variable":"筛选前3个月平均每日吸烟量是否多于5支",
    "metadata_variable":"PH1YN",
    "SDTM_Domain":"SC",
    "SDTM_Variable":"SCORRES when SCCAT=个人史 and SCTESTCD=SMOKE"
  },
  {
    "annotation_table":"个人史",
    "metadata_table":"PH",
    "annotation_variable":"若是，请说明",
    "metadata_variable":"PH1DESC",
    "SDTM_Domain":"SC",
    "SDTM_Variable":"QVAL when QNAM=SCDESC when SCTESTCD=SMOKE"
  },
  {
    "annotation_table":"个人史",
    "metadata_table":"PH",
    "annotation_variable":"筛选前6个月内每周饮酒是否超过14单位酒精",
    "metadata_variable":"PH2YN",
    "SDTM_Domain":"SC",
    "SDTM_Variable":"SCORRES when SCCAT=个人史 and SCTESTCD=ALCOHOL"
  },
  {
    "annotation_table":"个人史",
    "metadata_table":"PH",
    "annotation_variable":"若是，请说明",
    "metadata_variable":"PH2DESC",
    "SDTM_Domain":"SC",
    "SDTM_Variable":"QVAL when QNAM=SCDESC when SCTESTCD=ALCOHOL"
  },
  {
    "annotation_table":"个人史",
    "metadata_table":"PH",
    "annotation_variable":"受试者\/参与者（包括伴侣）自筛选前14天至试验用药品末次给药后3个月内是否无捐精、捐卵计划、无妊娠计划且自愿采取有效避孕措施",
    "metadata_variable":"PH3YN",
    "SDTM_Domain":"SC",
    "SDTM_Variable":"SCORRES when SCCAT=个人史 and SCTESTCD=NONPREG"
  },
  {
    "annotation_table":"个人史",
    "metadata_table":"PH",
    "annotation_variable":"若否，请说明",
    "metadata_variable":"PH3DESC",
    "SDTM_Domain":"SC",
    "SDTM_Variable":"QVAL when QNAM=SCDESC when SCTESTCD=NONPREG"
  },
  {
    "annotation_table":"个人史",
    "metadata_table":"PH",
    "annotation_variable":"既往是否使用过或参加过同靶点单克隆抗体或度普利尤单抗临床试验",
    "metadata_variable":"PH4YN",
    "SDTM_Domain":"SC",
    "SDTM_Variable":"SCORRES when SCCAT=个人史 and SCTESTCD=TRTEST"
  },
  {
    "annotation_table":"个人史",
    "metadata_table":"PH",
    "annotation_variable":"若是，请说明",
    "metadata_variable":"PH4DESC",
    "SDTM_Domain":"SC",
    "SDTM_Variable":"QVAL when QNAM=SCDESC when SCTESTCD=TRTEST"
  },
  {
    "annotation_table":"个人史",
    "metadata_table":"PH",
    "annotation_variable":"是否计划在试验期间接种疫苗",
    "metadata_variable":"PH5YN",
    "SDTM_Domain":"SC",
    "SDTM_Variable":"SCORRES when SCCAT=个人史 and SCTESTCD=VACCINE"
  },
  {
    "annotation_table":"个人史",
    "metadata_table":"PH",
    "annotation_variable":"若是，请说明",
    "metadata_variable":"PH5DESC",
    "SDTM_Domain":"SC",
    "SDTM_Variable":"QVAL when QNAM=SCDESC when SCTESTCD=VACCINE"
  },
  {
    "annotation_table":"个人史",
    "metadata_table":"PH",
    "annotation_variable":"是否有晕血、晕针史",
    "metadata_variable":"PH6YN",
    "SDTM_Domain":"SC",
    "SDTM_Variable":"SCORRES when SCCAT=个人史 and SCTESTCD=FAINT"
  },
  {
    "annotation_table":"个人史",
    "metadata_table":"PH",
    "annotation_variable":"若是，请说明",
    "metadata_variable":"PH6DESC",
    "SDTM_Domain":"SC",
    "SDTM_Variable":"QVAL when QNAM=SCDESC when SCTESTCD=FAINT"
  },
  {
    "annotation_table":"个人史",
    "metadata_table":"PH",
    "annotation_variable":"给药前3个月内是否接受过其他临床试验药物或器械治疗者，或给药前尚在其他试验药物5个半衰期以内者（以时间较长者为准）",
    "metadata_variable":"PH7YN",
    "SDTM_Domain":"SC",
    "SDTM_Variable":"SCORRES when SCCAT=个人史 and SCTESTCD=OTHTRET"
  },
  {
    "annotation_table":"个人史",
    "metadata_table":"PH",
    "annotation_variable":"若是，请说明",
    "metadata_variable":"PH7DESC",
    "SDTM_Domain":"SC",
    "SDTM_Variable":"QVAL when QNAM=SCDESC when SCTESTCD=OTHTRET"
  },
  {
    "annotation_table":"个人史",
    "metadata_table":"PH",
    "annotation_variable":"受试者\/参与者是否为妊娠或哺乳期女性",
    "metadata_variable":"PH8YN",
    "SDTM_Domain":"SC",
    "SDTM_Variable":"SCORRES when SCCAT=个人史 and SCTESTCD=PREGFEM"
  },
  {
    "annotation_table":"个人史",
    "metadata_table":"PH",
    "annotation_variable":"若是，请说明",
    "metadata_variable":"PH8DESC",
    "SDTM_Domain":"SC",
    "SDTM_Variable":"QVAL when QNAM=SCDESC when SCTESTCD=PREGFEM"
  },
  {
    "annotation_table":"个人史",
    "metadata_table":"PH",
    "annotation_variable":"拟注射给药部位是否有皮肤凹陷、皮肤硬结、瘢痕、炎症、水肿、溃疡、感染、出血等不适合进行皮下注射情况",
    "metadata_variable":"PH9YN",
    "SDTM_Domain":"SC",
    "SDTM_Variable":"SCORRES when SCCAT=个人史 and SCTESTCD=NOINJECT"
  },
  {
    "annotation_table":"个人史",
    "metadata_table":"PH",
    "annotation_variable":"若是，请说明",
    "metadata_variable":"PH9DESC",
    "SDTM_Domain":"SC",
    "SDTM_Variable":"QVAL when QNAM=SCDESC when SCTESTCD=NOINJECT"
  },
  {
    "annotation_table":"个人史",
    "metadata_table":"PH",
    "annotation_variable":"是否存在寄生虫侵染史或筛选前6个月内前往过寄生虫流行区",
    "metadata_variable":"PH10YN",
    "SDTM_Domain":"SC",
    "SDTM_Variable":"SCORRES when SCCAT=个人史 and SCTESTCD=PARASITE"
  },
  {
    "annotation_table":"个人史",
    "metadata_table":"PH",
    "annotation_variable":"若是，请说明",
    "metadata_variable":"PH10DESC",
    "SDTM_Domain":"SC",
    "SDTM_Variable":"QVAL when QNAM=SCDESC when SCTESTCD=PARASITE"
  },
  {
    "annotation_table":"个人史",
    "metadata_table":"PH",
    "annotation_variable":"是否对饮食有特殊要求，或不能遵守统一饮食",
    "metadata_variable":"PH11YN",
    "SDTM_Domain":"SC",
    "SDTM_Variable":"SCORRES when SCCAT=个人史 and SCTESTCD=UNIMEAL"
  },
  {
    "annotation_table":"个人史",
    "metadata_table":"PH",
    "annotation_variable":"若是，请说明",
    "metadata_variable":"PH11DESC",
    "SDTM_Domain":"SC",
    "SDTM_Variable":"QVAL when QNAM=SCDESC when SCTESTCD=UNIMEAL"
  },
  {
    "annotation_table":"过敏史",
    "metadata_table":"AH",
    "annotation_variable":"是否有过敏史?",
    "metadata_variable":"AHYN",
    "SDTM_Domain":"SC",
    "SDTM_Variable":"SCORRES when SCCAT=过敏史 and SCTESTCD=ALLERGYN"
  },
  {
    "annotation_table":"过敏史",
    "metadata_table":"AH",
    "annotation_variable":"是否已知过敏原？",
    "metadata_variable":"AHKYN",
    "SDTM_Domain":"SC",
    "SDTM_Variable":"SCORRES when SCCAT=过敏史 and SCTESTCD=ALLERG"
  },
  {
    "annotation_table":"过敏史",
    "metadata_table":"AH",
    "annotation_variable":"若是，请填写过敏原",
    "metadata_variable":"AHTERM",
    "SDTM_Domain":"SC",
    "SDTM_Variable":"QVAL when QNAM=SCDESC when SCTESTCD=ALLERG"
  },
  {
    "annotation_table":"PK血液样本采集",
    "metadata_table":"PC",
    "annotation_variable":"PC模块名称（隐藏变量）",
    "metadata_variable":"PCCAT",
    "SDTM_Domain":"PC",
    "SDTM_Variable":"PCCAT"
  },
  {
    "annotation_table":"PK血液样本采集",
    "metadata_table":"PC",
    "annotation_variable":"给药日期<optional>\n<判断给药与采血时间的关系>",
    "metadata_variable":"PCEXDAT",
    "SDTM_Domain":null,
    "SDTM_Variable":"NOT SUBMITTED"
  },
  {
    "annotation_table":"PK血液样本采集",
    "metadata_table":"PC",
    "annotation_variable":"给药时间<optional>\n<判断给药与采血时间的关系>",
    "metadata_variable":"PCEXTIM",
    "SDTM_Domain":null,
    "SDTM_Variable":"NOT SUBMITTED"
  },
  {
    "annotation_table":"PK血液样本采集",
    "metadata_table":"PC",
    "annotation_variable":"计划采集时间点",
    "metadata_variable":"PCTPT",
    "SDTM_Domain":"PC",
    "SDTM_Variable":"PCTPT"
  },
  {
    "annotation_table":"PK血液样本采集",
    "metadata_table":"PC",
    "annotation_variable":"是否采样",
    "metadata_variable":"PCPERF",
    "SDTM_Domain":"PC",
    "SDTM_Variable":"PCSTAT=未查 if [RAW]PCPERF=否"
  },
  {
    "annotation_table":"PK血液样本采集",
    "metadata_table":"PC",
    "annotation_variable":"采样日期",
    "metadata_variable":"PCDAT",
    "SDTM_Domain":"PC",
    "SDTM_Variable":"PCDTC"
  },
  {
    "annotation_table":"PK血液样本采集",
    "metadata_table":"PC",
    "annotation_variable":"采样时间（24小时制）",
    "metadata_variable":"PCTIM",
    "SDTM_Domain":"PC",
    "SDTM_Variable":"PCDTC"
  },
  {
    "annotation_table":"PK血液样本采集-计划外",
    "metadata_table":"PC_UN",
    "annotation_variable":"计划外采集时间点",
    "metadata_variable":"PCTPT",
    "SDTM_Domain":"PC",
    "SDTM_Variable":"QVAL when QNAM=UNPCTPT"
  },
  {
    "annotation_table":"PK血液样本采集-计划外",
    "metadata_table":"PC_UN",
    "annotation_variable":"采样日期",
    "metadata_variable":"PCDAT",
    "SDTM_Domain":"PC",
    "SDTM_Variable":"PCDTC"
  },
  {
    "annotation_table":"PK血液样本采集-计划外",
    "metadata_table":"PC_UN",
    "annotation_variable":"采样时间（24小时制）",
    "metadata_variable":"PCTIM",
    "SDTM_Domain":"PC",
    "SDTM_Variable":"PCDTC"
  },
  {
    "annotation_table":"ADA血液样本采集",
    "metadata_table":"ADA",
    "annotation_variable":"计划采集时间点",
    "metadata_variable":"ADATPT",
    "SDTM_Domain":"IS",
    "SDTM_Variable":"ISTPT"
  },
  {
    "annotation_table":"ADA血液样本采集",
    "metadata_table":"ADA",
    "annotation_variable":"是否采样",
    "metadata_variable":"ADAPERF",
    "SDTM_Domain":"IS",
    "SDTM_Variable":"ISSTAT=未查 if [RAW]ADAPERF=否"
  },
  {
    "annotation_table":"ADA血液样本采集",
    "metadata_table":"ADA",
    "annotation_variable":"采样日期",
    "metadata_variable":"ADADAT",
    "SDTM_Domain":"IS",
    "SDTM_Variable":"ISDTC"
  },
  {
    "annotation_table":"ADA血液样本采集",
    "metadata_table":"ADA",
    "annotation_variable":"采样时间（24小时制）",
    "metadata_variable":"ADATIM",
    "SDTM_Domain":"IS",
    "SDTM_Variable":"ISDTC"
  },
  {
    "annotation_table":"ADA血液样本采集-计划外",
    "metadata_table":"ADA_UN",
    "annotation_variable":"计划外采集时间点",
    "metadata_variable":"ADATPT",
    "SDTM_Domain":"IS",
    "SDTM_Variable":"QVAL when QNAM=UNISTPT"
  },
  {
    "annotation_table":"ADA血液样本采集-计划外",
    "metadata_table":"ADA_UN",
    "annotation_variable":"采样日期",
    "metadata_variable":"ADADAT",
    "SDTM_Domain":"IS",
    "SDTM_Variable":"ISDTC"
  },
  {
    "annotation_table":"ADA血液样本采集-计划外",
    "metadata_table":"ADA_UN",
    "annotation_variable":"采样时间（24小时制）",
    "metadata_variable":"ADATIM",
    "SDTM_Domain":"IS",
    "SDTM_Variable":"ISDTC"
  },
  {
    "annotation_table":"免疫原性采血\/免疫细胞采血",
    "metadata_table":"IM",
    "annotation_variable":"计划采集时间点",
    "metadata_variable":"IMTPT",
    "SDTM_Domain":"IS",
    "SDTM_Variable":"ISTPT"
  },
  {
    "annotation_table":"免疫原性采血\/免疫细胞采血",
    "metadata_table":"IM",
    "annotation_variable":"是否采样",
    "metadata_variable":"IMPERF",
    "SDTM_Domain":"IS",
    "SDTM_Variable":"ISSTAT=未查 if [RAW]IMPERF=否"
  },
  {
    "annotation_table":"免疫原性采血\/免疫细胞采血",
    "metadata_table":"IM",
    "annotation_variable":"采样日期",
    "metadata_variable":"IMDAT",
    "SDTM_Domain":"IS",
    "SDTM_Variable":"ISDTC"
  },
  {
    "annotation_table":"免疫原性采血\/免疫细胞采血",
    "metadata_table":"IM",
    "annotation_variable":"采样时间（24小时制）",
    "metadata_variable":"IMTIM",
    "SDTM_Domain":"IS",
    "SDTM_Variable":"ISDTC"
  },
  {
    "annotation_table":"免疫原性采血\/免疫细胞采血-计划外",
    "metadata_table":"IM_UN",
    "annotation_variable":"计划外采集时间点",
    "metadata_variable":"IMTPT",
    "SDTM_Domain":"IS",
    "SDTM_Variable":"QVAL when QNAM=UNISTPT"
  },
  {
    "annotation_table":"免疫原性采血\/免疫细胞采血-计划外",
    "metadata_table":"IM_UN",
    "annotation_variable":"采样日期",
    "metadata_variable":"IMDAT",
    "SDTM_Domain":"IS",
    "SDTM_Variable":"ISDTC"
  },
  {
    "annotation_table":"免疫原性采血\/免疫细胞采血-计划外",
    "metadata_table":"IM_UN",
    "annotation_variable":"采样时间（24小时制）",
    "metadata_variable":"IMTIM",
    "SDTM_Domain":"IS",
    "SDTM_Variable":"ISDTC"
  },
  {
    "annotation_table":"药效学血液样本采集",
    "metadata_table":"PD",
    "annotation_variable":"计划采集时间点",
    "metadata_variable":"PDTPT",
    "SDTM_Domain":"LB",
    "SDTM_Variable":"LBTPT"
  },
  {
    "annotation_table":"药效学血液样本采集",
    "metadata_table":"PD",
    "annotation_variable":"是否采样",
    "metadata_variable":"PDPERF",
    "SDTM_Domain":"LB",
    "SDTM_Variable":"LBSTAT=未查 if [RAW]PDPERF=否"
  },
  {
    "annotation_table":"药效学血液样本采集",
    "metadata_table":"PD",
    "annotation_variable":"采样日期",
    "metadata_variable":"PDDAT",
    "SDTM_Domain":"LB",
    "SDTM_Variable":"LBDTC"
  },
  {
    "annotation_table":"药效学血液样本采集",
    "metadata_table":"PD",
    "annotation_variable":"采样时间（24小时制）",
    "metadata_variable":"PDTIM",
    "SDTM_Domain":"LB",
    "SDTM_Variable":"LBDTC"
  },
  {
    "annotation_table":"药效学血液样本采集-计划外",
    "metadata_table":"PD_UN",
    "annotation_variable":"计划外采集时间点",
    "metadata_variable":"PDTPT",
    "SDTM_Domain":"LB",
    "SDTM_Variable":"QVAL when QNAM=UNLBTPT"
  },
  {
    "annotation_table":"药效学血液样本采集-计划外",
    "metadata_table":"PD_UN",
    "annotation_variable":"采样日期",
    "metadata_variable":"PDDAT",
    "SDTM_Domain":"LB",
    "SDTM_Variable":"LBDTC"
  },
  {
    "annotation_table":"药效学血液样本采集-计划外",
    "metadata_table":"PD_UN",
    "annotation_variable":"采样时间（24小时制）",
    "metadata_variable":"PDTIM",
    "SDTM_Domain":"LB",
    "SDTM_Variable":"LBDTC"
  },
  {
    "annotation_table":"细胞因子血液样本采集",
    "metadata_table":"CK",
    "annotation_variable":"计划采集时间点",
    "metadata_variable":"CKTPT",
    "SDTM_Domain":"CP",
    "SDTM_Variable":"CPTPT"
  },
  {
    "annotation_table":"细胞因子血液样本采集",
    "metadata_table":"CK",
    "annotation_variable":"是否采样",
    "metadata_variable":"CKPERF",
    "SDTM_Domain":"CP",
    "SDTM_Variable":"CPSTAT=未查 if [RAW]CKPERF=否 "
  },
  {
    "annotation_table":"细胞因子血液样本采集",
    "metadata_table":"CK",
    "annotation_variable":"采样日期",
    "metadata_variable":"CKDAT",
    "SDTM_Domain":"CP",
    "SDTM_Variable":"CPDTC"
  },
  {
    "annotation_table":"细胞因子血液样本采集",
    "metadata_table":"CK",
    "annotation_variable":"采样时间（24小时制）",
    "metadata_variable":"CKTIM",
    "SDTM_Domain":"CP",
    "SDTM_Variable":"CPDTC"
  },
  {
    "annotation_table":"细胞因子血液样本采集-计划外",
    "metadata_table":"CK_UN",
    "annotation_variable":"计划外采集时间点",
    "metadata_variable":"CKTPT",
    "SDTM_Domain":"CP",
    "SDTM_Variable":"QVAL when QNAM=UNCPTPT"
  },
  {
    "annotation_table":"细胞因子血液样本采集-计划外",
    "metadata_table":"CK_UN",
    "annotation_variable":"采样日期",
    "metadata_variable":"CKDAT",
    "SDTM_Domain":"CP",
    "SDTM_Variable":"CPDTC"
  },
  {
    "annotation_table":"细胞因子血液样本采集-计划外",
    "metadata_table":"CK_UN",
    "annotation_variable":"采样时间（24小时制）",
    "metadata_variable":"CKTIM",
    "SDTM_Domain":"CP",
    "SDTM_Variable":"CPDTC"
  },
  {
    "annotation_table":"外周血采集",
    "metadata_table":"PB",
    "annotation_variable":"计划采集时间点",
    "metadata_variable":"PBTPT",
    "SDTM_Domain":"LB",
    "SDTM_Variable":"LBTPT"
  },
  {
    "annotation_table":"外周血采集",
    "metadata_table":"PB",
    "annotation_variable":"是否采样",
    "metadata_variable":"PBPERF",
    "SDTM_Domain":"LB",
    "SDTM_Variable":"LBSTAT=未查 if [RAW]PBPERF=否"
  },
  {
    "annotation_table":"外周血采集",
    "metadata_table":"PB",
    "annotation_variable":"采样日期",
    "metadata_variable":"PBDAT",
    "SDTM_Domain":"LB",
    "SDTM_Variable":"LBDTC"
  },
  {
    "annotation_table":"外周血采集",
    "metadata_table":"PB",
    "annotation_variable":"采样时间（24小时制）",
    "metadata_variable":"PBTIM",
    "SDTM_Domain":"LB",
    "SDTM_Variable":"LBDTC"
  },
  {
    "annotation_table":"其他计划外检查",
    "metadata_table":"OT",
    "annotation_variable":"检查日期",
    "metadata_variable":"OTDAT",
    "SDTM_Domain":"XU",
    "SDTM_Variable":"XUDTC"
  },
  {
    "annotation_table":"其他计划外检查",
    "metadata_table":"OT",
    "annotation_variable":"检查项",
    "metadata_variable":"OTTEST",
    "SDTM_Domain":"XU",
    "SDTM_Variable":"XUTEST"
  },
  {
    "annotation_table":"其他计划外检查",
    "metadata_table":"OT",
    "annotation_variable":"检查结果",
    "metadata_variable":"OTRES",
    "SDTM_Domain":"XU",
    "SDTM_Variable":"XUORRES"
  },
  {
    "annotation_table":"其他计划外检查",
    "metadata_table":"OT",
    "annotation_variable":"单位",
    "metadata_variable":"OTRESU",
    "SDTM_Domain":"XU",
    "SDTM_Variable":"XUORRESU"
  },
  {
    "annotation_table":"其他计划外检查",
    "metadata_table":"OT",
    "annotation_variable":"临床意义评价",
    "metadata_variable":"OTCLSI",
    "SDTM_Domain":"XU",
    "SDTM_Variable":"QVAL when QNAM=XUCLSI"
  },
  {
    "annotation_table":"其他计划外检查",
    "metadata_table":"OT",
    "annotation_variable":"参考范围下限值",
    "metadata_variable":"OTORNRLO",
    "SDTM_Domain":"XU",
    "SDTM_Variable":"XUORNRLO"
  },
  {
    "annotation_table":"其他计划外检查",
    "metadata_table":"OT",
    "annotation_variable":"参考范围上限值",
    "metadata_variable":"OTORNRHI",
    "SDTM_Domain":"XU",
    "SDTM_Variable":"XUORNRHI"
  },
  {
    "annotation_table":"试验药物发放",
    "metadata_table":"DISP",
    "annotation_variable":"是否发放试验药物？<Optional>",
    "metadata_variable":"DISPYN",
    "SDTM_Domain":"DA",
    "SDTM_Variable":"DASTAT=未查 if [RAW]DISPYN=否"
  },
  {
    "annotation_table":"试验药物发放",
    "metadata_table":"DISP",
    "annotation_variable":"请选择发药数量<Optional>",
    "metadata_variable":"DISPAMT",
    "SDTM_Domain":"DA",
    "SDTM_Variable":"DAORRES when DATESTCD=DISPAMT"
  },
  {
    "annotation_table":"试验药物发放",
    "metadata_table":"DISP",
    "annotation_variable":"随机药物编号<Optional>",
    "metadata_variable":"ITEMS",
    "SDTM_Domain":"DA",
    "SDTM_Variable":"QVAL when QNAM=RANDKIT"
  },
  {
    "annotation_table":"试验药物发放",
    "metadata_table":"DISP",
    "annotation_variable":"发药日期<Optional>",
    "metadata_variable":"DISPDAT",
    "SDTM_Domain":"DA",
    "SDTM_Variable":"DADTC"
  },
  {
    "annotation_table":"试验药物发放",
    "metadata_table":"DISP",
    "annotation_variable":"实际使用的药物编号",
    "metadata_variable":"DISPLOT",
    "SDTM_Domain":"DA",
    "SDTM_Variable":"DASPID"
  },
  {
    "annotation_table":"死亡记录",
    "metadata_table":"DD",
    "annotation_variable":"死亡日期",
    "metadata_variable":"DTHDAT",
    "SDTM_Domain":"DD",
    "SDTM_Variable":"DDDTC"
  },
  {
    "annotation_table":"死亡记录",
    "metadata_table":"DD",
    "annotation_variable":"死亡的主要原因",
    "metadata_variable":"DDREAS",
    "SDTM_Domain":"DD",
    "SDTM_Variable":"DDORRES when DDTESTCD=PRCDTH"
  },
  {
    "annotation_table":"死亡记录",
    "metadata_table":"DD",
    "annotation_variable":"其他死亡原因，请描述",
    "metadata_variable":"DDROTH",
    "SDTM_Domain":"DD",
    "SDTM_Variable":"QVAL when QNAM=DDREAOTH"
  },
  {
    "annotation_table":"死亡记录",
    "metadata_table":"DD",
    "annotation_variable":"是否尸检<Optional>",
    "metadata_variable":"AUTOPSY",
    "SDTM_Domain":"DD",
    "SDTM_Variable":"DDORRES when DDTESTCD=AUTOPIND"
  },
  {
    "annotation_table":"生存随访",
    "metadata_table":"SF",
    "annotation_variable":"是否进行生存随访？",
    "metadata_variable":"SFYN",
    "SDTM_Domain":"SS",
    "SDTM_Variable":"SSSTAT=未查 if [RAW]SFYN=否"
  },
  {
    "annotation_table":"生存随访",
    "metadata_table":"SF",
    "annotation_variable":"随访日期",
    "metadata_variable":"SFDAT",
    "SDTM_Domain":"SS",
    "SDTM_Variable":"SSDTC"
  },
  {
    "annotation_table":"生存随访",
    "metadata_table":"SF",
    "annotation_variable":"生存情况",
    "metadata_variable":"SFST",
    "SDTM_Domain":"SS",
    "SDTM_Variable":"SSORRES when SSTESTCD=SURVSTAT"
  },
  {
    "annotation_table":"胃癌病史",
    "metadata_table":"TH1",
    "annotation_variable":"肿瘤原发部位",
    "metadata_variable":"THLOC",
    "SDTM_Domain":"FA",
    "SDTM_Variable":"FAORRES when FATESTCD=THLOC\/FAOBJ=胃癌"
  },
  {
    "annotation_table":"胃癌病史",
    "metadata_table":"TH1",
    "annotation_variable":"其他部位，请描述",
    "metadata_variable":"THLOCOTH",
    "SDTM_Domain":"FA",
    "SDTM_Variable":"QVAL when QNAM=FAOROTH when FATESTCD=THLOC"
  },
  {
    "annotation_table":"胃癌病史",
    "metadata_table":"TH1",
    "annotation_variable":"首次病理确诊日期",
    "metadata_variable":"THINDAT",
    "SDTM_Domain":"FA",
    "SDTM_Variable":"FAORRES when FATESTCD=THINDTC"
  },
  {
    "annotation_table":"胃癌病史",
    "metadata_table":"TH1",
    "annotation_variable":"组织病理学分型",
    "metadata_variable":"THPTYP",
    "SDTM_Domain":"FA",
    "SDTM_Variable":"FAORRES when FATESTCD=THPTYP"
  },
  {
    "annotation_table":"胃癌病史",
    "metadata_table":"TH1",
    "annotation_variable":"其他组织病理学分型，请描述",
    "metadata_variable":"THPTYPO",
    "SDTM_Domain":"FA",
    "SDTM_Variable":"QVAL when QNAM=FAOROTH when FATESTCD=THPTYP"
  },
  {
    "annotation_table":"胃癌病史",
    "metadata_table":"TH1",
    "annotation_variable":"是否进行Siewert分型诊断",
    "metadata_variable":"THSWTYN",
    "SDTM_Domain":"FA",
    "SDTM_Variable":"FAORRES when FATESTCD=THSWTYN"
  },
  {
    "annotation_table":"胃癌病史",
    "metadata_table":"TH1",
    "annotation_variable":"Siewert分型",
    "metadata_variable":"THSWTTYP",
    "SDTM_Domain":"FA",
    "SDTM_Variable":"FAORRES when FATESTCD=THSWTTYP"
  },
  {
    "annotation_table":"胃癌病史",
    "metadata_table":"TH1",
    "annotation_variable":"是否进行Lauren分型诊断",
    "metadata_variable":"THLARYN",
    "SDTM_Domain":"FA",
    "SDTM_Variable":"FAORRES when FATESTCD=THLARYN"
  },
  {
    "annotation_table":"胃癌病史",
    "metadata_table":"TH1",
    "annotation_variable":"Lauren分型",
    "metadata_variable":"THLARTYP",
    "SDTM_Domain":"FA",
    "SDTM_Variable":"FAORRES when FATESTCD=THLARTYP"
  },
  {
    "annotation_table":"胃癌病史",
    "metadata_table":"TH1",
    "annotation_variable":"组织学分级",
    "metadata_variable":"THPGRD",
    "SDTM_Domain":"FA",
    "SDTM_Variable":"FAORRES when FATESTCD=THPGRD"
  },
  {
    "annotation_table":"胃癌病史",
    "metadata_table":"TH1",
    "annotation_variable":"其他，请详述",
    "metadata_variable":"THPGRDO",
    "SDTM_Domain":"FA",
    "SDTM_Variable":"QVAL when QNAM=FAOROTH when FATESTCD=THPGRD"
  },
  {
    "annotation_table":"胃癌病史",
    "metadata_table":"TH1",
    "annotation_variable":"现阶段是否适用于TNM分期",
    "metadata_variable":"THTNMYN",
    "SDTM_Domain":"FA",
    "SDTM_Variable":"FAORRES when FATESTCD=THTNMYN"
  },
  {
    "annotation_table":"胃癌病史",
    "metadata_table":"TH1",
    "annotation_variable":"现阶段TNM分期_T",
    "metadata_variable":"THTNMT",
    "SDTM_Domain":"FA",
    "SDTM_Variable":"FAORRES when FATESTCD=THTNMT"
  },
  {
    "annotation_table":"胃癌病史",
    "metadata_table":"TH1",
    "annotation_variable":"其他T分期，请描述",
    "metadata_variable":"THTNMTO",
    "SDTM_Domain":"FA",
    "SDTM_Variable":"QVAL when QNAM=FAOROTH when FATESTCD=THTNMT"
  },
  {
    "annotation_table":"胃癌病史",
    "metadata_table":"TH1",
    "annotation_variable":"现阶段TNM分期_N",
    "metadata_variable":"THTNMN",
    "SDTM_Domain":"FA",
    "SDTM_Variable":"FAORRES when FATESTCD=THTNMN"
  },
  {
    "annotation_table":"胃癌病史",
    "metadata_table":"TH1",
    "annotation_variable":"其他N分期，请描述",
    "metadata_variable":"THTNMNO",
    "SDTM_Domain":"FA",
    "SDTM_Variable":"QVAL when QNAM=FAOROTH when FATESTCD=THTNMN"
  },
  {
    "annotation_table":"胃癌病史",
    "metadata_table":"TH1",
    "annotation_variable":"现阶段TNM分期_M",
    "metadata_variable":"THTNMM",
    "SDTM_Domain":"FA",
    "SDTM_Variable":"FAORRES when FATESTCD=THTNMM"
  },
  {
    "annotation_table":"胃癌病史",
    "metadata_table":"TH1",
    "annotation_variable":"其他M分期，请描述",
    "metadata_variable":"THTNMMO",
    "SDTM_Domain":"FA",
    "SDTM_Variable":"QVAL when QNAM=FAOROTH when FATESTCD=THTNMM"
  },
  {
    "annotation_table":"胃癌病史",
    "metadata_table":"TH1",
    "annotation_variable":"如不适用TNM分期，请填写现阶段其他分期",
    "metadata_variable":"THTNMO",
    "SDTM_Domain":"FA",
    "SDTM_Variable":"FAORRES when FATESTCD=THTNMO"
  },
  {
    "annotation_table":"胃癌病史",
    "metadata_table":"TH1",
    "annotation_variable":"现阶段临床分期",
    "metadata_variable":"THCLSTA",
    "SDTM_Domain":"FA",
    "SDTM_Variable":"FAORRES when FATESTCD=THCLSTA"
  },
  {
    "annotation_table":"胃癌病史",
    "metadata_table":"TH1",
    "annotation_variable":"现阶段其他临床分期，请描述",
    "metadata_variable":"THCLSTAO",
    "SDTM_Domain":"FA",
    "SDTM_Variable":"QVAL when QNAM=FAOROTH when FATESTCD=THCLSTA"
  },
  {
    "annotation_table":"胃癌病史",
    "metadata_table":"TH1",
    "annotation_variable":"是否有远处转移？",
    "metadata_variable":"THMETYN",
    "SDTM_Domain":"FA",
    "SDTM_Variable":"FAORRES when FATESTCD=THMETYN"
  },
  {
    "annotation_table":"胃癌病史",
    "metadata_table":"TH1",
    "annotation_variable":"如果有远处转移，请选择转移部位",
    "metadata_variable":"THMETLOC",
    "SDTM_Domain":"FA",
    "SDTM_Variable":"FAORRES when FATESTCD=THMETLOC"
  },
  {
    "annotation_table":"胃癌病史",
    "metadata_table":"TH1",
    "annotation_variable":"其他转移部位",
    "metadata_variable":"THMLOCO",
    "SDTM_Domain":"FA",
    "SDTM_Variable":"QVAL when QNAM=FAOROTH when FATESTCD=THMETLOC"
  },
  {
    "annotation_table":"胃癌病史",
    "metadata_table":"TH1",
    "annotation_variable":"最近一次进展日期<optional>",
    "metadata_variable":"THLPDDAT",
    "SDTM_Domain":"FA",
    "SDTM_Variable":"FAORRES when FATESTCD=THLPDDTC"
  },
  {
    "annotation_table":"宫颈癌病史",
    "metadata_table":"TH2",
    "annotation_variable":"临床诊断<临床诊断选择“复发性宫颈癌（含持续性宫颈癌）”触发“复发确诊日期”、“初诊FIGO分期”、“是否伴有远端转移”>\n<临床诊断选择“IVB期宫颈癌”触发“IVB期确诊日期”>",
    "metadata_variable":"THCLDX",
    "SDTM_Domain":"FA",
    "SDTM_Variable":"FAORRES when FATESTCD=THCLDX"
  },
  {
    "annotation_table":"宫颈癌病史",
    "metadata_table":"TH2",
    "annotation_variable":"组织病理确诊日期",
    "metadata_variable":"THINDAT",
    "SDTM_Domain":"FA",
    "SDTM_Variable":"FAORRES when FATESTCD=THINDTC"
  },
  {
    "annotation_table":"宫颈癌病史",
    "metadata_table":"TH2",
    "annotation_variable":"组织病理学分型",
    "metadata_variable":"THPTYP",
    "SDTM_Domain":"FA",
    "SDTM_Variable":"FAORRES when FATESTCD=THPTYP"
  },
  {
    "annotation_table":"宫颈癌病史",
    "metadata_table":"TH2",
    "annotation_variable":"HPV相关",
    "metadata_variable":"THHPVYN",
    "SDTM_Domain":"FA",
    "SDTM_Variable":"FAORRES when FATESTCD=THHPVYN"
  },
  {
    "annotation_table":"宫颈癌病史",
    "metadata_table":"TH2",
    "annotation_variable":"病理学分型为腺癌，是否有亚型？",
    "metadata_variable":"THTYPAYN",
    "SDTM_Domain":"FA",
    "SDTM_Variable":"FAORRES when FATESTCD=THTYPAYN"
  },
  {
    "annotation_table":"宫颈癌病史",
    "metadata_table":"TH2",
    "annotation_variable":"如有亚型，请描述",
    "metadata_variable":"THTYPAO",
    "SDTM_Domain":"FA",
    "SDTM_Variable":"FAORRES when FATESTCD=THTYPAO"
  },
  {
    "annotation_table":"宫颈癌病史",
    "metadata_table":"TH2",
    "annotation_variable":"组织病理学分级",
    "metadata_variable":"THPGRD",
    "SDTM_Domain":"FA",
    "SDTM_Variable":"FAORRES when FATESTCD=THPGRD"
  },
  {
    "annotation_table":"宫颈癌病史",
    "metadata_table":"TH2",
    "annotation_variable":"其他分级，请描述",
    "metadata_variable":"THPGRDO",
    "SDTM_Domain":"FA",
    "SDTM_Variable":"QVAL when QNAM=FAOROTH when FATESTCD=THPGRD"
  },
  {
    "annotation_table":"宫颈癌病史",
    "metadata_table":"TH2",
    "annotation_variable":"初诊FIGO分期",
    "metadata_variable":"THFIGO",
    "SDTM_Domain":"FA",
    "SDTM_Variable":"FAORRES when FATESTCD=THFIGO"
  },
  {
    "annotation_table":"宫颈癌病史",
    "metadata_table":"TH2",
    "annotation_variable":"初诊FIGO分期为I期，请选择",
    "metadata_variable":"THFIGO1",
    "SDTM_Domain":"FA",
    "SDTM_Variable":"FAORRES when FATESTCD=THFIGO1"
  },
  {
    "annotation_table":"宫颈癌病史",
    "metadata_table":"TH2",
    "annotation_variable":"初诊FIGO分期为II期，请选择",
    "metadata_variable":"THFIGO2",
    "SDTM_Domain":"FA",
    "SDTM_Variable":"FAORRES when FATESTCD=THFIGO2"
  },
  {
    "annotation_table":"宫颈癌病史",
    "metadata_table":"TH2",
    "annotation_variable":"初诊FIGO分期为III期，请选择",
    "metadata_variable":"THFIGO3",
    "SDTM_Domain":"FA",
    "SDTM_Variable":"FAORRES when FATESTCD=THFIGO3"
  },
  {
    "annotation_table":"宫颈癌病史",
    "metadata_table":"TH2",
    "annotation_variable":"是否为IVB期？",
    "metadata_variable":"THFIGBYN",
    "SDTM_Domain":"FA",
    "SDTM_Variable":"FAORRES when FATESTCD=THFIGBYN"
  },
  {
    "annotation_table":"宫颈癌病史",
    "metadata_table":"TH2",
    "annotation_variable":"FIGO分期选择其他，请说明",
    "metadata_variable":"THFIGOO",
    "SDTM_Domain":"FA",
    "SDTM_Variable":"QVAL when QNAM=FAOROTH when FATESTCD=THFIGO"
  },
  {
    "annotation_table":"宫颈癌病史",
    "metadata_table":"TH2",
    "annotation_variable":"IVB期确诊日期",
    "metadata_variable":"THFIBDAT",
    "SDTM_Domain":"FA",
    "SDTM_Variable":"FAORRES when FATESTCD=THFIBDTC"
  },
  {
    "annotation_table":"宫颈癌病史",
    "metadata_table":"TH2",
    "annotation_variable":"复发确诊日期",
    "metadata_variable":"THRDAT",
    "SDTM_Domain":"FA",
    "SDTM_Variable":"FAORRES when FATESTCD=THRDTC"
  },
  {
    "annotation_table":"宫颈癌病史",
    "metadata_table":"TH2",
    "annotation_variable":"是否有远处转移？",
    "metadata_variable":"THMETYN",
    "SDTM_Domain":"FA",
    "SDTM_Variable":"FAORRES when FATESTCD=THMETYN"
  },
  {
    "annotation_table":"宫颈癌病史",
    "metadata_table":"TH2",
    "annotation_variable":"如果有远处转移，请选择转移部位",
    "metadata_variable":"THMETLOC",
    "SDTM_Domain":"FA",
    "SDTM_Variable":"FAORRES when FATESTCD=THMETLOC"
  },
  {
    "annotation_table":"宫颈癌病史",
    "metadata_table":"TH2",
    "annotation_variable":"淋巴结具体部位",
    "metadata_variable":"THMLOCA",
    "SDTM_Domain":"FA",
    "SDTM_Variable":"QVAL when QNAM=THLOCLYM when FATESTCD=THMETLOC"
  },
  {
    "annotation_table":"宫颈癌病史",
    "metadata_table":"TH2",
    "annotation_variable":"其他转移部位",
    "metadata_variable":"THMLOCO",
    "SDTM_Domain":"FA",
    "SDTM_Variable":"QVAL when QNAM=FAOROTH when FATESTCD=THMETLOC"
  },
  {
    "annotation_table":"非小细胞肺癌史",
    "metadata_table":"TH3",
    "annotation_variable":"首次病理确诊日期",
    "metadata_variable":"THINDAT",
    "SDTM_Domain":"FA",
    "SDTM_Variable":"FAORRES when FATESTCD=THINDTC"
  },
  {
    "annotation_table":"非小细胞肺癌史",
    "metadata_table":"TH3",
    "annotation_variable":"组织病理学分型",
    "metadata_variable":"THPTYP",
    "SDTM_Domain":"FA",
    "SDTM_Variable":"FAORRES when FATESTCD=THPTYP"
  },
  {
    "annotation_table":"非小细胞肺癌史",
    "metadata_table":"TH3",
    "annotation_variable":"组织病理学分型为其他，请说明",
    "metadata_variable":"THPTYPO",
    "SDTM_Domain":"FA",
    "SDTM_Variable":"QVAL when QNAM=FAOROTH when FATESTCD=THPTYP"
  },
  {
    "annotation_table":"非小细胞肺癌史",
    "metadata_table":"TH3",
    "annotation_variable":"组织病理学分级",
    "metadata_variable":"THPGRD",
    "SDTM_Domain":"FA",
    "SDTM_Variable":"FAORRES when FATESTCD=THPGRD"
  },
  {
    "annotation_table":"非小细胞肺癌史",
    "metadata_table":"TH3",
    "annotation_variable":"原发病灶部位",
    "metadata_variable":"THLOC",
    "SDTM_Domain":"FA",
    "SDTM_Variable":"FAORRES when FATESTCD=THLOC"
  },
  {
    "annotation_table":"非小细胞肺癌史",
    "metadata_table":"TH3",
    "annotation_variable":"其他原发病灶部位",
    "metadata_variable":"THLOCOTH",
    "SDTM_Domain":"FA",
    "SDTM_Variable":"QVAL when QNAM=FAOROTH when FATESTCD=THLOC"
  },
  {
    "annotation_table":"非小细胞肺癌史",
    "metadata_table":"TH3",
    "annotation_variable":"现阶段是否进行TNM分期？",
    "metadata_variable":"THTNMYN",
    "SDTM_Domain":"FA",
    "SDTM_Variable":"FAORRES when FATESTCD=THTNMYN"
  },
  {
    "annotation_table":"非小细胞肺癌史",
    "metadata_table":"TH3",
    "annotation_variable":"现阶段TNM分期采用XXXX第X版肺癌分期<label提示>",
    "metadata_variable":null,
    "SDTM_Domain":null,
    "SDTM_Variable":"NOT SUBMITTED"
  },
  {
    "annotation_table":"非小细胞肺癌史",
    "metadata_table":"TH3",
    "annotation_variable":"现阶段TNM分期（T）",
    "metadata_variable":"THTNMT",
    "SDTM_Domain":"FA",
    "SDTM_Variable":"FAORRES when FATESTCD=THTNMT"
  },
  {
    "annotation_table":"非小细胞肺癌史",
    "metadata_table":"TH3",
    "annotation_variable":"现阶段TNM-T分期为其他，请说明",
    "metadata_variable":"THTNMTO",
    "SDTM_Domain":"FA",
    "SDTM_Variable":"QVAL when QNAM=FAOROTH when FATESTCD=THTNMT"
  },
  {
    "annotation_table":"非小细胞肺癌史",
    "metadata_table":"TH3",
    "annotation_variable":"现阶段TNM分期（N）",
    "metadata_variable":"THTNMN",
    "SDTM_Domain":"FA",
    "SDTM_Variable":"FAORRES when FATESTCD=THTNMN"
  },
  {
    "annotation_table":"非小细胞肺癌史",
    "metadata_table":"TH3",
    "annotation_variable":"N2阳性组数",
    "metadata_variable":"THTNMN2N",
    "SDTM_Domain":"FA",
    "SDTM_Variable":"FAORRES when FATESTCD=THTNMN2N"
  },
  {
    "annotation_table":"非小细胞肺癌史",
    "metadata_table":"TH3",
    "annotation_variable":"现阶段TNM-N分期为其他，请说明",
    "metadata_variable":"THTNMNO",
    "SDTM_Domain":"FA",
    "SDTM_Variable":"QVAL when QNAM=FAOROTH when FATESTCD=THTNMN"
  },
  {
    "annotation_table":"非小细胞肺癌史",
    "metadata_table":"TH3",
    "annotation_variable":"现阶段TNM分期（M）",
    "metadata_variable":"THTNMM",
    "SDTM_Domain":"FA",
    "SDTM_Variable":"FAORRES when FATESTCD=THTNMM"
  },
  {
    "annotation_table":"非小细胞肺癌史",
    "metadata_table":"TH3",
    "annotation_variable":"现阶段TNM-M分期为其他，请说明",
    "metadata_variable":"THTNMMO",
    "SDTM_Domain":"FA",
    "SDTM_Variable":"QVAL when QNAM=FAOROTH when FATESTCD=THTNMM"
  },
  {
    "annotation_table":"非小细胞肺癌史",
    "metadata_table":"TH3",
    "annotation_variable":"现阶段分期",
    "metadata_variable":"THCLSTA",
    "SDTM_Domain":"FA",
    "SDTM_Variable":"FAORRES when FATESTCD=THCLSTA"
  },
  {
    "annotation_table":"非小细胞肺癌史",
    "metadata_table":"TH3",
    "annotation_variable":"现阶段分期为其他，请说明",
    "metadata_variable":"THCLSTAO",
    "SDTM_Domain":"FA",
    "SDTM_Variable":"QVAL when QNAM=FAOROTH when FATESTCD=THCLSTA"
  },
  {
    "annotation_table":"非小细胞肺癌史",
    "metadata_table":"TH9",
    "annotation_variable":"首次病理确诊日期",
    "metadata_variable":"THINDAT",
    "SDTM_Domain":"FA",
    "SDTM_Variable":"FAORRES when FATESTCD=THINDTC"
  },
  {
    "annotation_table":"非小细胞肺癌史",
    "metadata_table":"TH9",
    "annotation_variable":"病理类型",
    "metadata_variable":"THPTYP",
    "SDTM_Domain":"FA",
    "SDTM_Variable":"FAORRES when FATESTCD=THPTYP"
  },
  {
    "annotation_table":"非小细胞肺癌史",
    "metadata_table":"TH9",
    "annotation_variable":"如为鳞癌，请选择具体病理类型",
    "metadata_variable":"THPTYPA",
    "SDTM_Domain":"FA",
    "SDTM_Variable":"FAORRES when FATESTCD=THPTYPA"
  },
  {
    "annotation_table":"非小细胞肺癌史",
    "metadata_table":"TH9",
    "annotation_variable":"如为非鳞癌，请选择具体病理类型",
    "metadata_variable":"THPTYPB",
    "SDTM_Domain":"FA",
    "SDTM_Variable":"FAORRES when FATESTCD=THPTYPB"
  },
  {
    "annotation_table":"非小细胞肺癌史",
    "metadata_table":"TH9",
    "annotation_variable":"病理类型为其他，请说明",
    "metadata_variable":"THPTYPO",
    "SDTM_Domain":"FA",
    "SDTM_Variable":"QVAL when QNAM=FAOROTH when FATESTCD=THPTYP"
  },
  {
    "annotation_table":"非小细胞肺癌史",
    "metadata_table":"TH9",
    "annotation_variable":"组织学\/细胞学分级",
    "metadata_variable":"THPGRD",
    "SDTM_Domain":"FA",
    "SDTM_Variable":"FAORRES when FATESTCD=THPGRD"
  },
  {
    "annotation_table":"非小细胞肺癌史",
    "metadata_table":"TH9",
    "annotation_variable":"其他，请详述",
    "metadata_variable":"THPGRDO",
    "SDTM_Domain":"FA",
    "SDTM_Variable":"QVAL when QNAM=FAOROTH when FATESTCD=THPGRD"
  },
  {
    "annotation_table":"非小细胞肺癌史",
    "metadata_table":"TH9",
    "annotation_variable":"EGFR敏感突变",
    "metadata_variable":"THEGFR",
    "SDTM_Domain":"FA",
    "SDTM_Variable":"FAORRES when FATESTCD=THEGFR"
  },
  {
    "annotation_table":"非小细胞肺癌史",
    "metadata_table":"TH9",
    "annotation_variable":"如为其他，请说明",
    "metadata_variable":"THEGFRO",
    "SDTM_Domain":"FA",
    "SDTM_Variable":"QVAL when QNAM=FAOROTH when FATESTCD=THEGFR"
  },
  {
    "annotation_table":"非小细胞肺癌史",
    "metadata_table":"TH9",
    "annotation_variable":"ALK融合",
    "metadata_variable":"THALK",
    "SDTM_Domain":"FA",
    "SDTM_Variable":"FAORRES when FATESTCD=THALK"
  },
  {
    "annotation_table":"非小细胞肺癌史",
    "metadata_table":"TH9",
    "annotation_variable":"如为其他，请说明",
    "metadata_variable":"THALKO",
    "SDTM_Domain":"FA",
    "SDTM_Variable":"QVAL when QNAM=FAOROTH when FATESTCD=THALK"
  },
  {
    "annotation_table":"非小细胞肺癌史",
    "metadata_table":"TH9",
    "annotation_variable":"原发病灶部位",
    "metadata_variable":"THLOC",
    "SDTM_Domain":"FA",
    "SDTM_Variable":"FAORRES when FATESTCD=THLOC"
  },
  {
    "annotation_table":"非小细胞肺癌史",
    "metadata_table":"TH9",
    "annotation_variable":"现阶段 TNM分期采用AJCC（美国癌症联合会）第8版肺癌分期<label提示>",
    "metadata_variable":null,
    "SDTM_Domain":null,
    "SDTM_Variable":"NOT SUBMITTED"
  },
  {
    "annotation_table":"非小细胞肺癌史",
    "metadata_table":"TH9",
    "annotation_variable":"现阶段是否进行TNM分期",
    "metadata_variable":"THTNMYN",
    "SDTM_Domain":"FA",
    "SDTM_Variable":"FAORRES when FATESTCD=THTNMYN"
  },
  {
    "annotation_table":"非小细胞肺癌史",
    "metadata_table":"TH9",
    "annotation_variable":"现阶段TNM分期（T）",
    "metadata_variable":"THTNMT",
    "SDTM_Domain":"FA",
    "SDTM_Variable":"FAORRES when FATESTCD=THTNMT"
  },
  {
    "annotation_table":"非小细胞肺癌史",
    "metadata_table":"TH9",
    "annotation_variable":"现阶段TNM-T分期为其他，请说明",
    "metadata_variable":"THTNMTO",
    "SDTM_Domain":"FA",
    "SDTM_Variable":"QVAL when QNAM=FAOROTH when FATESTCD=THTNMT"
  },
  {
    "annotation_table":"非小细胞肺癌史",
    "metadata_table":"TH9",
    "annotation_variable":"现阶段TNM分期（N）",
    "metadata_variable":"THTNMN",
    "SDTM_Domain":"FA",
    "SDTM_Variable":"FAORRES when FATESTCD=THTNMN"
  },
  {
    "annotation_table":"非小细胞肺癌史",
    "metadata_table":"TH9",
    "annotation_variable":"现阶段TNM-N分期为其他，请说明",
    "metadata_variable":"THTNMNO",
    "SDTM_Domain":"FA",
    "SDTM_Variable":"QVAL when QNAM=FAOROTH when FATESTCD=THTNMN"
  },
  {
    "annotation_table":"非小细胞肺癌史",
    "metadata_table":"TH9",
    "annotation_variable":"现阶段TNM分期（M）",
    "metadata_variable":"THTNMM",
    "SDTM_Domain":"FA",
    "SDTM_Variable":"FAORRES when FATESTCD=THTNMM"
  },
  {
    "annotation_table":"非小细胞肺癌史",
    "metadata_table":"TH9",
    "annotation_variable":"现阶段TNM-M分期为其他，请说明",
    "metadata_variable":"THTNMMO",
    "SDTM_Domain":"FA",
    "SDTM_Variable":"QVAL when QNAM=FAOROTH when FATESTCD=THTNMM"
  },
  {
    "annotation_table":"非小细胞肺癌史",
    "metadata_table":"TH9",
    "annotation_variable":"现阶段临床分期",
    "metadata_variable":"THCLSTA",
    "SDTM_Domain":"FA",
    "SDTM_Variable":"FAORRES when FATESTCD=THCLSTA"
  },
  {
    "annotation_table":"非小细胞肺癌史",
    "metadata_table":"TH9",
    "annotation_variable":"现阶段临床分期为其他，请说明",
    "metadata_variable":"THCLSTAO",
    "SDTM_Domain":"FA",
    "SDTM_Variable":"QVAL when QNAM=FAOROTH when FATESTCD=THCLSTA"
  },
  {
    "annotation_table":"非小细胞肺癌史",
    "metadata_table":"TH9",
    "annotation_variable":"有无复发",
    "metadata_variable":"THRYN",
    "SDTM_Domain":"FA",
    "SDTM_Variable":"FAORRES when FATESTCD=THRYN"
  },
  {
    "annotation_table":"非小细胞肺癌史",
    "metadata_table":"TH9",
    "annotation_variable":"复发日期",
    "metadata_variable":"THRDAT",
    "SDTM_Domain":"FA",
    "SDTM_Variable":"FAORRES when FATESTCD=THRDTC"
  },
  {
    "annotation_table":"非小细胞肺癌史",
    "metadata_table":"TH9",
    "annotation_variable":"是否有远处转移？",
    "metadata_variable":"THMETYN",
    "SDTM_Domain":"FA",
    "SDTM_Variable":"FAORRES when FATESTCD=THMETYN"
  },
  {
    "annotation_table":"非小细胞肺癌史",
    "metadata_table":"TH9",
    "annotation_variable":"如果有远处转移，请选择转移部位",
    "metadata_variable":"THMETLOC",
    "SDTM_Domain":"FA",
    "SDTM_Variable":"FAORRES when FATESTCD=THMETLOC"
  },
  {
    "annotation_table":"非小细胞肺癌史",
    "metadata_table":"TH9",
    "annotation_variable":"若为区域外淋巴结，请注明具体部位",
    "metadata_variable":"THMLOCA",
    "SDTM_Domain":"FA",
    "SDTM_Variable":"QVAL when QNAM=THLOCLYM when FATESTCD=THMETLOC"
  },
  {
    "annotation_table":"非小细胞肺癌史",
    "metadata_table":"TH9",
    "annotation_variable":"其他转移部位",
    "metadata_variable":"THMLOCO",
    "SDTM_Domain":"FA",
    "SDTM_Variable":"QVAL when QNAM=FAOROTH when FATESTCD=THMETLOC"
  },
  {
    "annotation_table":"小细胞肺癌病史",
    "metadata_table":"TH4",
    "annotation_variable":"肿瘤诊断名称",
    "metadata_variable":"THTERM",
    "SDTM_Domain":"FA",
    "SDTM_Variable":"FAORRES when FATESTCD=THTERM"
  },
  {
    "annotation_table":"小细胞肺癌病史",
    "metadata_table":"TH4",
    "annotation_variable":"临床诊断",
    "metadata_variable":"THCLDX",
    "SDTM_Domain":"FA",
    "SDTM_Variable":"FAORRES when FATESTCD=THCLDX"
  },
  {
    "annotation_table":"小细胞肺癌病史",
    "metadata_table":"TH4",
    "annotation_variable":"其他临床诊断",
    "metadata_variable":"THCLDXO",
    "SDTM_Domain":"FA",
    "SDTM_Variable":"QVAL when QNAM=FAOROTH when FATESTCD=THCLDX"
  },
  {
    "annotation_table":"小细胞肺癌病史",
    "metadata_table":"TH4",
    "annotation_variable":"病理诊断依据",
    "metadata_variable":"THPTIMP",
    "SDTM_Domain":"FA",
    "SDTM_Variable":"FAORRES when FATESTCD=THPTIMP"
  },
  {
    "annotation_table":"小细胞肺癌病史",
    "metadata_table":"TH4",
    "annotation_variable":"病理诊断结果",
    "metadata_variable":"THPTRES",
    "SDTM_Domain":"FA",
    "SDTM_Variable":"FAORRES when FATESTCD=THPTRES"
  },
  {
    "annotation_table":"小细胞肺癌病史",
    "metadata_table":"TH4",
    "annotation_variable":"病理诊断分期",
    "metadata_variable":"THPTSTA",
    "SDTM_Domain":"FA",
    "SDTM_Variable":"FAORRES when FATESTCD=THPTSTA"
  },
  {
    "annotation_table":"小细胞肺癌病史",
    "metadata_table":"TH4",
    "annotation_variable":"首次病理确诊日期",
    "metadata_variable":"THINDAT",
    "SDTM_Domain":"FA",
    "SDTM_Variable":"FAORRES when FATESTCD=THINDTC"
  },
  {
    "annotation_table":"小细胞肺癌病史",
    "metadata_table":"TH4",
    "annotation_variable":"是否发生复发？",
    "metadata_variable":"THRYN",
    "SDTM_Domain":"FA",
    "SDTM_Variable":"FAORRES when FATESTCD=THRYN"
  },
  {
    "annotation_table":"小细胞肺癌病史",
    "metadata_table":"TH4",
    "annotation_variable":"首次复发日期",
    "metadata_variable":"THRDAT",
    "SDTM_Domain":"FA",
    "SDTM_Variable":"FAORRES when FATESTCD=THRDTC"
  },
  {
    "annotation_table":"小细胞肺癌病史",
    "metadata_table":"TH4",
    "annotation_variable":"现阶段TNM分期-T",
    "metadata_variable":"THTNMT",
    "SDTM_Domain":"FA",
    "SDTM_Variable":"FAORRES when FATESTCD=THTNMT"
  },
  {
    "annotation_table":"小细胞肺癌病史",
    "metadata_table":"TH4",
    "annotation_variable":"现阶段TNM分期-T其他",
    "metadata_variable":"THTNMTO",
    "SDTM_Domain":"FA",
    "SDTM_Variable":"QVAL when QNAM=FAOROTH when FATESTCD=THTNMT"
  },
  {
    "annotation_table":"小细胞肺癌病史",
    "metadata_table":"TH4",
    "annotation_variable":"现阶段TNM分期-N",
    "metadata_variable":"THTNMN",
    "SDTM_Domain":"FA",
    "SDTM_Variable":"FAORRES when FATESTCD=THTNMN"
  },
  {
    "annotation_table":"小细胞肺癌病史",
    "metadata_table":"TH4",
    "annotation_variable":"现阶段TNM分期-N其他",
    "metadata_variable":"THTNMNO",
    "SDTM_Domain":"FA",
    "SDTM_Variable":"QVAL when QNAM=FAOROTH when FATESTCD=THTNMN"
  },
  {
    "annotation_table":"小细胞肺癌病史",
    "metadata_table":"TH4",
    "annotation_variable":"现阶段TNM分期-M",
    "metadata_variable":"THTNMM",
    "SDTM_Domain":"FA",
    "SDTM_Variable":"FAORRES when FATESTCD=THTNMM"
  },
  {
    "annotation_table":"小细胞肺癌病史",
    "metadata_table":"TH4",
    "annotation_variable":"现阶段TNM分期-M其他",
    "metadata_variable":"THTNMMO",
    "SDTM_Domain":"FA",
    "SDTM_Variable":"QVAL when QNAM=FAOROTH when FATESTCD=THTNMM"
  },
  {
    "annotation_table":"小细胞肺癌病史",
    "metadata_table":"TH4",
    "annotation_variable":"现阶段临床分期",
    "metadata_variable":"THCLSTA",
    "SDTM_Domain":"FA",
    "SDTM_Variable":"FAORRES when FATESTCD=THCLSTA"
  },
  {
    "annotation_table":"小细胞肺癌病史",
    "metadata_table":"TH4",
    "annotation_variable":"现阶段临床分期为其他，请说明",
    "metadata_variable":"THCLSTAO",
    "SDTM_Domain":"FA",
    "SDTM_Variable":"QVAL when QNAM=FAOROTH when FATESTCD=THCLSTA"
  },
  {
    "annotation_table":"小细胞肺癌病史",
    "metadata_table":"TH10",
    "annotation_variable":"首次病理确诊日期",
    "metadata_variable":"THINDAT",
    "SDTM_Domain":"FA",
    "SDTM_Variable":"FAORRES when FATESTCD=THINDTC"
  },
  {
    "annotation_table":"小细胞肺癌病史",
    "metadata_table":"TH10",
    "annotation_variable":"病理诊断",
    "metadata_variable":"THCLDX",
    "SDTM_Domain":"FA",
    "SDTM_Variable":"FAORRES when FATESTCD=THCLDX"
  },
  {
    "annotation_table":"小细胞肺癌病史",
    "metadata_table":"TH10",
    "annotation_variable":"现阶段入组时分期（VALG二分法）",
    "metadata_variable":"THVALG",
    "SDTM_Domain":"FA",
    "SDTM_Variable":"FAORRES when FATESTCD=THVALG"
  },
  {
    "annotation_table":"小细胞肺癌病史",
    "metadata_table":"TH10",
    "annotation_variable":"是否有远处转移？",
    "metadata_variable":"THMETYN",
    "SDTM_Domain":"FA",
    "SDTM_Variable":"FAORRES when FATESTCD=THMETYN"
  },
  {
    "annotation_table":"小细胞肺癌病史",
    "metadata_table":"TH10",
    "annotation_variable":"如果有远处转移，请选择转移部位",
    "metadata_variable":"THMETLOC",
    "SDTM_Domain":"FA",
    "SDTM_Variable":"FAORRES when FATESTCD=THMETLOC"
  },
  {
    "annotation_table":"小细胞肺癌病史",
    "metadata_table":"TH10",
    "annotation_variable":"若为淋巴结，请描述具体部位",
    "metadata_variable":"THMLOCA",
    "SDTM_Domain":"FA",
    "SDTM_Variable":"QVAL when QNAM=THLOCLYM when FATESTCD=THMETLOC"
  },
  {
    "annotation_table":"小细胞肺癌病史",
    "metadata_table":"TH10",
    "annotation_variable":"其他转移部位",
    "metadata_variable":"THMLOCO",
    "SDTM_Domain":"FA",
    "SDTM_Variable":"QVAL when QNAM=FAOROTH when FATESTCD=THMETLOC"
  },
  {
    "annotation_table":"肝癌病史",
    "metadata_table":"TH5",
    "annotation_variable":"首次病理确诊日期",
    "metadata_variable":"THINDAT",
    "SDTM_Domain":"FA",
    "SDTM_Variable":"FAORRES when FATESTCD=THINDTC"
  },
  {
    "annotation_table":"肝癌病史",
    "metadata_table":"TH5",
    "annotation_variable":"HCC确诊方法",
    "metadata_variable":"THHCC",
    "SDTM_Domain":"FA",
    "SDTM_Variable":"FAORRES when FATESTCD=THHCC"
  },
  {
    "annotation_table":"肝癌病史",
    "metadata_table":"TH5",
    "annotation_variable":"现阶段TNM-T分期",
    "metadata_variable":"THTNMT",
    "SDTM_Domain":"FA",
    "SDTM_Variable":"FAORRES when FATESTCD=THTNMT"
  },
  {
    "annotation_table":"肝癌病史",
    "metadata_table":"TH5",
    "annotation_variable":"现阶段TNM-T分期为其他，请说明",
    "metadata_variable":"THTNMTO",
    "SDTM_Domain":"FA",
    "SDTM_Variable":"QVAL when QNAM=FAOROTH when FATESTCD=THTNMT"
  },
  {
    "annotation_table":"肝癌病史",
    "metadata_table":"TH5",
    "annotation_variable":"现阶段TNM-N分期",
    "metadata_variable":"THTNMN",
    "SDTM_Domain":"FA",
    "SDTM_Variable":"FAORRES when FATESTCD=THTNMN"
  },
  {
    "annotation_table":"肝癌病史",
    "metadata_table":"TH5",
    "annotation_variable":"现阶段TNM-N分期为其他，请说明",
    "metadata_variable":"THTNMNO",
    "SDTM_Domain":"FA",
    "SDTM_Variable":"QVAL when QNAM=FAOROTH when FATESTCD=THTNMN"
  },
  {
    "annotation_table":"肝癌病史",
    "metadata_table":"TH5",
    "annotation_variable":"现阶段TNM-M分期",
    "metadata_variable":"THTNMM",
    "SDTM_Domain":"FA",
    "SDTM_Variable":"FAORRES when FATESTCD=THTNMM"
  },
  {
    "annotation_table":"肝癌病史",
    "metadata_table":"TH5",
    "annotation_variable":"现阶段TNM-M分期为其他，请说明",
    "metadata_variable":"THTNMMO",
    "SDTM_Domain":"FA",
    "SDTM_Variable":"QVAL when QNAM=FAOROTH when FATESTCD=THTNMM"
  },
  {
    "annotation_table":"肝癌病史",
    "metadata_table":"TH5",
    "annotation_variable":"现阶段临床分期",
    "metadata_variable":"THCLSTA",
    "SDTM_Domain":"FA",
    "SDTM_Variable":"FAORRES when FATESTCD=THCLSTA"
  },
  {
    "annotation_table":"肝癌病史",
    "metadata_table":"TH5",
    "annotation_variable":"其他临床分期，请说明",
    "metadata_variable":"THCLSTAO",
    "SDTM_Domain":"FA",
    "SDTM_Variable":"QVAL when QNAM=FAOROTH when FATESTCD=THCLSTA"
  },
  {
    "annotation_table":"肝癌病史",
    "metadata_table":"TH5",
    "annotation_variable":"巴塞罗那临床肝癌分期",
    "metadata_variable":"THBCLC",
    "SDTM_Domain":"FA",
    "SDTM_Variable":"FAORRES when FATESTCD=THBCLC"
  },
  {
    "annotation_table":"肝癌病史",
    "metadata_table":"TH5",
    "annotation_variable":"是否适合根治性手术或局部治疗<optional>",
    "metadata_variable":"THCRLTYN",
    "SDTM_Domain":"FA",
    "SDTM_Variable":"FAORRES when FATESTCD=THCRLTYN"
  },
  {
    "annotation_table":"肝癌病史",
    "metadata_table":"TH5",
    "annotation_variable":"是否有肝性脑病史？",
    "metadata_variable":"THHEYN",
    "SDTM_Domain":"FA",
    "SDTM_Variable":"FAORRES when FATESTCD=THHEYN"
  },
  {
    "annotation_table":"肝癌病史",
    "metadata_table":"TH5",
    "annotation_variable":"是否有大血管侵犯？",
    "metadata_variable":"THBVIYN",
    "SDTM_Domain":"FA",
    "SDTM_Variable":"FAORRES when FATESTCD=THBVIYN"
  },
  {
    "annotation_table":"肝癌病史",
    "metadata_table":"TH5",
    "annotation_variable":"是否有远处转移？",
    "metadata_variable":"THMETYN",
    "SDTM_Domain":"FA",
    "SDTM_Variable":"FAORRES when FATESTCD=THMETYN"
  },
  {
    "annotation_table":"肝癌病史",
    "metadata_table":"TH5",
    "annotation_variable":"如果有远处转移，请选择转移部位",
    "metadata_variable":"THMETLOC",
    "SDTM_Domain":"FA",
    "SDTM_Variable":"FAORRES when FATESTCD=THMETLOC"
  },
  {
    "annotation_table":"肝癌病史",
    "metadata_table":"TH5",
    "annotation_variable":"其他转移部位",
    "metadata_variable":"THMLOCO",
    "SDTM_Domain":"FA",
    "SDTM_Variable":"QVAL when QNAM=FAOROTH when FATESTCD=THMETLOC"
  },
  {
    "annotation_table":"结直肠癌病史",
    "metadata_table":"TH6",
    "annotation_variable":"临床诊断",
    "metadata_variable":"THCLDX",
    "SDTM_Domain":"FA",
    "SDTM_Variable":"FAORRES when FATESTCD=THCLDX"
  },
  {
    "annotation_table":"结直肠癌病史",
    "metadata_table":"TH6",
    "annotation_variable":"原发肿瘤部位",
    "metadata_variable":"THLOC",
    "SDTM_Domain":"FA",
    "SDTM_Variable":"FAORRES when FATESTCD=THLOC"
  },
  {
    "annotation_table":"结直肠癌病史",
    "metadata_table":"TH6",
    "annotation_variable":"组织病理分型",
    "metadata_variable":"THPTYP",
    "SDTM_Domain":"FA",
    "SDTM_Variable":"FAORRES when FATESTCD=THPTYP"
  },
  {
    "annotation_table":"结直肠癌病史",
    "metadata_table":"TH6",
    "annotation_variable":"首次病理学确诊日期",
    "metadata_variable":"THINDAT",
    "SDTM_Domain":"FA",
    "SDTM_Variable":"FAORRES when FATESTCD=THINDTC"
  },
  {
    "annotation_table":"结直肠癌病史",
    "metadata_table":"TH6",
    "annotation_variable":"病理分级",
    "metadata_variable":"THPGRD",
    "SDTM_Domain":"FA",
    "SDTM_Variable":"FAORRES when FATESTCD=THPGRD"
  },
  {
    "annotation_table":"结直肠癌病史",
    "metadata_table":"TH6",
    "annotation_variable":"其他病理分级",
    "metadata_variable":"THPGRDO",
    "SDTM_Domain":"FA",
    "SDTM_Variable":"QVAL when QNAM=FAOROTH when FATESTCD=THPGRD"
  },
  {
    "annotation_table":"结直肠癌病史",
    "metadata_table":"TH6",
    "annotation_variable":"现阶段TNM-T分期",
    "metadata_variable":"THTNMT",
    "SDTM_Domain":"FA",
    "SDTM_Variable":"FAORRES when FATESTCD=THTNMT"
  },
  {
    "annotation_table":"结直肠癌病史",
    "metadata_table":"TH6",
    "annotation_variable":"其他现阶段TNM-T分期",
    "metadata_variable":"THTNMTO",
    "SDTM_Domain":"FA",
    "SDTM_Variable":"QVAL when QNAM=FAOROTH when FATESTCD=THTNMT"
  },
  {
    "annotation_table":"结直肠癌病史",
    "metadata_table":"TH6",
    "annotation_variable":"现阶段TNM-N分期",
    "metadata_variable":"THTNMN",
    "SDTM_Domain":"FA",
    "SDTM_Variable":"FAORRES when FATESTCD=THTNMN"
  },
  {
    "annotation_table":"结直肠癌病史",
    "metadata_table":"TH6",
    "annotation_variable":"其他现阶段TNM-N分期",
    "metadata_variable":"THTNMNO",
    "SDTM_Domain":"FA",
    "SDTM_Variable":"QVAL when QNAM=FAOROTH when FATESTCD=THTNMN"
  },
  {
    "annotation_table":"结直肠癌病史",
    "metadata_table":"TH6",
    "annotation_variable":"现阶段TNM-M分期",
    "metadata_variable":"THTNMM",
    "SDTM_Domain":"FA",
    "SDTM_Variable":"FAORRES when FATESTCD=THTNMM"
  },
  {
    "annotation_table":"结直肠癌病史",
    "metadata_table":"TH6",
    "annotation_variable":"其他现阶段TNM-M分期",
    "metadata_variable":"THTNMMO",
    "SDTM_Domain":"FA",
    "SDTM_Variable":"QVAL when QNAM=FAOROTH when FATESTCD=THTNMM"
  },
  {
    "annotation_table":"结直肠癌病史",
    "metadata_table":"TH6",
    "annotation_variable":"现阶段临床分期",
    "metadata_variable":"THCLSTA",
    "SDTM_Domain":"FA",
    "SDTM_Variable":"FAORRES when FATESTCD=THCLSTA"
  },
  {
    "annotation_table":"结直肠癌病史",
    "metadata_table":"TH6",
    "annotation_variable":"其他现阶段临床分期",
    "metadata_variable":"THCLSTAO",
    "SDTM_Domain":"FA",
    "SDTM_Variable":"QVAL when QNAM=FAOROTH when FATESTCD=THCLSTA"
  },
  {
    "annotation_table":"结直肠癌病史",
    "metadata_table":"TH6",
    "annotation_variable":"是否有远处转移？",
    "metadata_variable":"THMETYN",
    "SDTM_Domain":"FA",
    "SDTM_Variable":"FAORRES when FATESTCD=THMETYN"
  },
  {
    "annotation_table":"结直肠癌病史",
    "metadata_table":"TH6",
    "annotation_variable":"首次发生转移日期",
    "metadata_variable":"THMETDAT",
    "SDTM_Domain":"FA",
    "SDTM_Variable":"FAORRES when FATESTCD=THMETDTC"
  },
  {
    "annotation_table":"结直肠癌病史",
    "metadata_table":"TH6",
    "annotation_variable":"转移部位",
    "metadata_variable":"THMETLOC",
    "SDTM_Domain":"FA",
    "SDTM_Variable":"FAORRES when FATESTCD=THMETLOC"
  },
  {
    "annotation_table":"结直肠癌病史",
    "metadata_table":"TH6",
    "annotation_variable":"其他转移部位",
    "metadata_variable":"THMLOCO",
    "SDTM_Domain":"FA",
    "SDTM_Variable":"QVAL when QNAM=FAOROTH when FATESTCD=THMETLOC"
  },
  {
    "annotation_table":"食管癌诊断",
    "metadata_table":"TH7",
    "annotation_variable":"首次病理确诊日期",
    "metadata_variable":"THINDAT",
    "SDTM_Domain":"FA",
    "SDTM_Variable":"FAORRES when FATESTCD=THINDTC"
  },
  {
    "annotation_table":"食管癌诊断",
    "metadata_table":"TH7",
    "annotation_variable":"组织病理学分型",
    "metadata_variable":"THPTYP",
    "SDTM_Domain":"FA",
    "SDTM_Variable":"FAORRES when FATESTCD=THPTYP"
  },
  {
    "annotation_table":"食管癌诊断",
    "metadata_table":"TH7",
    "annotation_variable":"组织病理学分型为其他，请说明",
    "metadata_variable":"THPTYPO",
    "SDTM_Domain":"FA",
    "SDTM_Variable":"QVAL when QNAM=FAOROTH when FATESTCD=THPTYP"
  },
  {
    "annotation_table":"食管癌诊断",
    "metadata_table":"TH7",
    "annotation_variable":"组织病理学分级",
    "metadata_variable":"THPGRD",
    "SDTM_Domain":"FA",
    "SDTM_Variable":"FAORRES when FATESTCD=THPGRD"
  },
  {
    "annotation_table":"食管癌诊断",
    "metadata_table":"TH7",
    "annotation_variable":"组织病理学分级为其他，请描述",
    "metadata_variable":"THPGRDO",
    "SDTM_Domain":"FA",
    "SDTM_Variable":"QVAL when QNAM=FAOROTH when FATESTCD=THPGRD"
  },
  {
    "annotation_table":"食管癌诊断",
    "metadata_table":"TH7",
    "annotation_variable":"原发病灶部位",
    "metadata_variable":"THLOC",
    "SDTM_Domain":"FA",
    "SDTM_Variable":"FAORRES when FATESTCD=THLOC"
  },
  {
    "annotation_table":"食管癌诊断",
    "metadata_table":"TH7",
    "annotation_variable":"原发病灶部位为其他，请描述",
    "metadata_variable":"THLOCOTH",
    "SDTM_Domain":"FA",
    "SDTM_Variable":"QVAL when QNAM=FAOROTH when FATESTCD=THLOC"
  },
  {
    "annotation_table":"食管癌诊断",
    "metadata_table":"TH7",
    "annotation_variable":"现阶段T分期",
    "metadata_variable":"THTNMT",
    "SDTM_Domain":"FA",
    "SDTM_Variable":"FAORRES when FATESTCD=THTNMT"
  },
  {
    "annotation_table":"食管癌诊断",
    "metadata_table":"TH7",
    "annotation_variable":"现阶段TNM-T分期为其他，请说明",
    "metadata_variable":"THTNMTO",
    "SDTM_Domain":"FA",
    "SDTM_Variable":"QVAL when QNAM=FAOROTH when FATESTCD=THTNMT"
  },
  {
    "annotation_table":"食管癌诊断",
    "metadata_table":"TH7",
    "annotation_variable":"现阶段N分期",
    "metadata_variable":"THTNMN",
    "SDTM_Domain":"FA",
    "SDTM_Variable":"FAORRES when FATESTCD=THTNMN"
  },
  {
    "annotation_table":"食管癌诊断",
    "metadata_table":"TH7",
    "annotation_variable":"现阶段TNM-N分期为其他，请说明",
    "metadata_variable":"THTNMNO",
    "SDTM_Domain":"FA",
    "SDTM_Variable":"QVAL when QNAM=FAOROTH when FATESTCD=THTNMN"
  },
  {
    "annotation_table":"食管癌诊断",
    "metadata_table":"TH7",
    "annotation_variable":"现阶段M分期",
    "metadata_variable":"THTNMM",
    "SDTM_Domain":"FA",
    "SDTM_Variable":"FAORRES when FATESTCD=THTNMM"
  },
  {
    "annotation_table":"食管癌诊断",
    "metadata_table":"TH7",
    "annotation_variable":"现阶段TNM-M分期为其他，请说明",
    "metadata_variable":"THTNMMO",
    "SDTM_Domain":"FA",
    "SDTM_Variable":"QVAL when QNAM=FAOROTH when FATESTCD=THTNMM"
  },
  {
    "annotation_table":"食管癌诊断",
    "metadata_table":"TH7",
    "annotation_variable":"临床分期",
    "metadata_variable":"THCLSTA",
    "SDTM_Domain":"FA",
    "SDTM_Variable":"FAORRES when FATESTCD=THCLSTA"
  },
  {
    "annotation_table":"食管癌诊断",
    "metadata_table":"TH7",
    "annotation_variable":"如果有转移灶，请描述转移部位",
    "metadata_variable":"THMETLOC",
    "SDTM_Domain":"FA",
    "SDTM_Variable":"FAORRES when FATESTCD=THMETLOC"
  },
  {
    "annotation_table":"多发性骨髓瘤诊断与类型",
    "metadata_table":"TH8",
    "annotation_variable":"首次确诊日期",
    "metadata_variable":"THINDAT",
    "SDTM_Domain":"FA",
    "SDTM_Variable":"FAORRES when FATESTCD=THINDTC"
  },
  {
    "annotation_table":"多发性骨髓瘤诊断与类型",
    "metadata_table":"TH8",
    "annotation_variable":"首次诊断分型",
    "metadata_variable":"THPTYP",
    "SDTM_Domain":"FA",
    "SDTM_Variable":"FAORRES when FATESTCD=THINTYP"
  },
  {
    "annotation_table":"多发性骨髓瘤诊断与类型",
    "metadata_table":"TH8",
    "annotation_variable":"首次诊断轻链类型",
    "metadata_variable":"THPLTYP",
    "SDTM_Domain":"FA",
    "SDTM_Variable":"FAORRES when FATESTCD=THINLTYP"
  },
  {
    "annotation_table":"多发性骨髓瘤诊断与类型",
    "metadata_table":"TH8",
    "annotation_variable":"首次诊断ISS分期",
    "metadata_variable":"THISS",
    "SDTM_Domain":"FA",
    "SDTM_Variable":"FAORRES when FATESTCD=THINISS"
  },
  {
    "annotation_table":"多发性骨髓瘤诊断与类型",
    "metadata_table":"TH8",
    "annotation_variable":"首次诊断R-ISS分期",
    "metadata_variable":"THRISS",
    "SDTM_Domain":"FA",
    "SDTM_Variable":"FAORRES when FATESTCD=THINRISS"
  },
  {
    "annotation_table":"多发性骨髓瘤诊断与类型",
    "metadata_table":"TH8",
    "annotation_variable":"首次诊断的β2微球蛋白结果是否可获得",
    "metadata_variable":"THMICYN",
    "SDTM_Domain":"FA",
    "SDTM_Variable":"FAORRES when FATESTCD=THINMYN"
  },
  {
    "annotation_table":"多发性骨髓瘤诊断与类型",
    "metadata_table":"TH8",
    "annotation_variable":"首次β2微球蛋白<首次诊断的β2微球蛋白结果是否可获得选择是时触发>",
    "metadata_variable":"THMICRES",
    "SDTM_Domain":"FA",
    "SDTM_Variable":"FAORRES when FATESTCD=THINMIC"
  },
  {
    "annotation_table":"多发性骨髓瘤诊断与类型",
    "metadata_table":"TH8",
    "annotation_variable":"首次β2微球蛋白单位<首次诊断的β2微球蛋白结果是否可获得选择是时触发>",
    "metadata_variable":"THMICU",
    "SDTM_Domain":"FA",
    "SDTM_Variable":"FAORRESU when FATESTCD=THINMIC"
  },
  {
    "annotation_table":"多发性骨髓瘤诊断与类型",
    "metadata_table":"TH8",
    "annotation_variable":"其他单位，请说明",
    "metadata_variable":"THMICUO",
    "SDTM_Domain":"FA",
    "SDTM_Variable":"FAORRESU when FATESTCD=THINMIC"
  },
  {
    "annotation_table":"多发性骨髓瘤诊断与类型",
    "metadata_table":"TH8",
    "annotation_variable":"首次诊断的白蛋白结果是否可获得",
    "metadata_variable":"THALBYN",
    "SDTM_Domain":"FA",
    "SDTM_Variable":"FAORRES when FATESTCD=THINAYN"
  },
  {
    "annotation_table":"多发性骨髓瘤诊断与类型",
    "metadata_table":"TH8",
    "annotation_variable":"首次白蛋白",
    "metadata_variable":"THALBRES",
    "SDTM_Domain":"FA",
    "SDTM_Variable":"FAORRES when FATESTCD=THINALB"
  },
  {
    "annotation_table":"多发性骨髓瘤诊断与类型",
    "metadata_table":"TH8",
    "annotation_variable":"首次白蛋白单位",
    "metadata_variable":"THALBU",
    "SDTM_Domain":"FA",
    "SDTM_Variable":"FAORRESU when FATESTCD=THINALB"
  },
  {
    "annotation_table":"多发性骨髓瘤诊断与类型",
    "metadata_table":"TH8",
    "annotation_variable":"其他单位，请说明",
    "metadata_variable":"THALBUO",
    "SDTM_Domain":"FA",
    "SDTM_Variable":"FAORRESU when FATESTCD=THINALB"
  },
  {
    "annotation_table":"多发性骨髓瘤诊断与类型",
    "metadata_table":"TH8",
    "annotation_variable":"首次诊断的浆细胞百分比结果（%）是否可获得",
    "metadata_variable":"THPLAYN",
    "SDTM_Domain":"FA",
    "SDTM_Variable":"FAORRES when FATESTCD=THINPYN"
  },
  {
    "annotation_table":"多发性骨髓瘤诊断与类型",
    "metadata_table":"TH8",
    "annotation_variable":"浆细胞百分比（%）",
    "metadata_variable":"THPLARES",
    "SDTM_Domain":"FA",
    "SDTM_Variable":"FAORRES when FATESTCD=THINPLA"
  },
  {
    "annotation_table":"多发性骨髓瘤诊断与类型",
    "metadata_table":"TH8",
    "annotation_variable":"现阶段诊断日期",
    "metadata_variable":"THCUDAT",
    "SDTM_Domain":"FA",
    "SDTM_Variable":"FAORRES when FATESTCD=THCUDTC"
  },
  {
    "annotation_table":"多发性骨髓瘤诊断与类型",
    "metadata_table":"TH8",
    "annotation_variable":"现阶段诊断分型",
    "metadata_variable":"THCTYP",
    "SDTM_Domain":"FA",
    "SDTM_Variable":"FAORRES when FATESTCD=THCUTYP"
  },
  {
    "annotation_table":"多发性骨髓瘤诊断与类型",
    "metadata_table":"TH8",
    "annotation_variable":"现阶段β2微球蛋白",
    "metadata_variable":"THMCCRES",
    "SDTM_Domain":"FA",
    "SDTM_Variable":"FAORRES when FATESTCD=THCUMIC"
  },
  {
    "annotation_table":"多发性骨髓瘤诊断与类型",
    "metadata_table":"TH8",
    "annotation_variable":"现阶段β2微球蛋白单位",
    "metadata_variable":"THMCCU",
    "SDTM_Domain":"FA",
    "SDTM_Variable":"FAORRESU when FATESTCD=THCUMIC"
  },
  {
    "annotation_table":"多发性骨髓瘤诊断与类型",
    "metadata_table":"TH8",
    "annotation_variable":"其他单位，请说明",
    "metadata_variable":"THMCCUO",
    "SDTM_Domain":"FA",
    "SDTM_Variable":"FAORRESU when FATESTCD=THCUMIC"
  },
  {
    "annotation_table":"多发性骨髓瘤诊断与类型",
    "metadata_table":"TH8",
    "annotation_variable":"现阶段轻链类型",
    "metadata_variable":"THPLCTYP",
    "SDTM_Domain":"FA",
    "SDTM_Variable":"FAORRES when FATESTCD=THCULTYP"
  },
  {
    "annotation_table":"多发性骨髓瘤诊断与类型",
    "metadata_table":"TH8",
    "annotation_variable":"现阶段ISS分期",
    "metadata_variable":"THCISS",
    "SDTM_Domain":"FA",
    "SDTM_Variable":"FAORRES when FATESTCD=THCUISS"
  },
  {
    "annotation_table":"多发性骨髓瘤诊断与类型",
    "metadata_table":"TH8",
    "annotation_variable":"现阶段R-ISS分期",
    "metadata_variable":"THCRISS",
    "SDTM_Domain":"FA",
    "SDTM_Variable":"FAORRES when FATESTCD=THCURISS"
  },
  {
    "annotation_table":"多发性骨髓瘤诊断与类型",
    "metadata_table":"TH8",
    "annotation_variable":"髓外软组织浆细胞瘤评价",
    "metadata_variable":"THPLASE",
    "SDTM_Domain":"FA",
    "SDTM_Variable":"FAORRES when FATESTCD=THPLASE"
  },
  {
    "annotation_table":"多发性骨髓瘤诊断与类型",
    "metadata_table":"TH8",
    "annotation_variable":"髓外溶骨性病灶评价",
    "metadata_variable":"THEOPE",
    "SDTM_Domain":"FA",
    "SDTM_Variable":"FAORRES when FATESTCD=THEOPE"
  },
  {
    "annotation_table":"FISH检查",
    "metadata_table":"FISH",
    "annotation_variable":"是否进行FISH检查？",
    "metadata_variable":"FISHPERF",
    "SDTM_Domain":"GF",
    "SDTM_Variable":"GFSTAT=未查 if [RAW]FISHPERF=否"
  },
  {
    "annotation_table":"FISH检查",
    "metadata_table":"FISH",
    "annotation_variable":"采样日期",
    "metadata_variable":"FISHDAT",
    "SDTM_Domain":"GF",
    "SDTM_Variable":"GFDTC"
  },
  {
    "annotation_table":"FISH检查",
    "metadata_table":"FISH",
    "annotation_variable":"检测项",
    "metadata_variable":"FISHTEST",
    "SDTM_Domain":"GF",
    "SDTM_Variable":"GFTEST"
  },
  {
    "annotation_table":"FISH检查",
    "metadata_table":"FISH",
    "annotation_variable":"检测结果",
    "metadata_variable":"FISHRES",
    "SDTM_Domain":"GF",
    "SDTM_Variable":"GFORRES"
  },
  {
    "annotation_table":"靶病灶-基线",
    "metadata_table":"TU_TLB",
    "annotation_variable":"是否有靶病灶？",
    "metadata_variable":"TUYN",
    "SDTM_Domain":"TU",
    "SDTM_Variable":"TUORRES=靶病灶 when TUTESTCD=TUMIDENT\/TUORRES when TUTESTCD=TIND"
  },
  {
    "annotation_table":"靶病灶-基线",
    "metadata_table":"TU_TLB",
    "annotation_variable":"所有靶病灶直径总和（mm）",
    "metadata_variable":"TUTOT",
    "SDTM_Domain":"TR",
    "SDTM_Variable":"TRORRES\/TRORRESU when TRTESTCD=SUMDIAM"
  },
  {
    "annotation_table":"靶病灶-基线",
    "metadata_table":"TU_TLB",
    "annotation_variable":"病灶编号",
    "metadata_variable":"TULNKID",
    "SDTM_Domain":"TU|TR",
    "SDTM_Variable":"TULNKID|TRLNKID"
  },
  {
    "annotation_table":"靶病灶-基线",
    "metadata_table":"TU_TLB",
    "annotation_variable":"病灶部位<参考不同瘤肿的病灶部位codelist>",
    "metadata_variable":"TULOC",
    "SDTM_Domain":"TU",
    "SDTM_Variable":"TULOC"
  },
  {
    "annotation_table":"靶病灶-基线",
    "metadata_table":"TU_TLB",
    "annotation_variable":"其他部位",
    "metadata_variable":"TULOCOTH",
    "SDTM_Domain":"TU",
    "SDTM_Variable":"QVAL when QNAM=TULOCOTH when TUTESTCD=TUMIDENT"
  },
  {
    "annotation_table":"靶病灶-基线",
    "metadata_table":"TU_TLB",
    "annotation_variable":"病灶描述",
    "metadata_variable":"TUDESC",
    "SDTM_Domain":"TU",
    "SDTM_Variable":"QVAL when QNAM=TUDESC when TUTESTCD=TUMIDENT"
  },
  {
    "annotation_table":"靶病灶-基线",
    "metadata_table":"TU_TLB",
    "annotation_variable":"检查日期",
    "metadata_variable":"TUDAT",
    "SDTM_Domain":"TU|TR",
    "SDTM_Variable":"TUDTC|TRDTC"
  },
  {
    "annotation_table":"靶病灶-基线",
    "metadata_table":"TU_TLB",
    "annotation_variable":"检查方法",
    "metadata_variable":"TUMETH",
    "SDTM_Domain":"TU|TR",
    "SDTM_Variable":"TUMETHOD|TRMETHOD"
  },
  {
    "annotation_table":"靶病灶-基线",
    "metadata_table":"TU_TLB",
    "annotation_variable":"其他检查方法，请说明",
    "metadata_variable":"TUMETOTH",
    "SDTM_Domain":"TU|TR",
    "SDTM_Variable":"TUMETHOD|TRMETHOD"
  },
  {
    "annotation_table":"靶病灶-基线",
    "metadata_table":"TU_TLB",
    "annotation_variable":"直径（mm）（最长径\/淋巴结病灶短径）",
    "metadata_variable":"TUORRES",
    "SDTM_Domain":"TR",
    "SDTM_Variable":"TRORRES\/TRORRESU when TRTESTCD=DIAMETER"
  },
  {
    "annotation_table":"非靶病灶-基线",
    "metadata_table":"TU_NTLB",
    "annotation_variable":"是否有非靶病灶？",
    "metadata_variable":"TUYN",
    "SDTM_Domain":"TU",
    "SDTM_Variable":"TUORRES=非靶病灶 when TUTESTCD=TUMIDENT\/TUORRES when TUTESTCD=NTIND"
  },
  {
    "annotation_table":"非靶病灶-基线",
    "metadata_table":"TU_NTLB",
    "annotation_variable":"病灶编号",
    "metadata_variable":"TUNTLKID",
    "SDTM_Domain":"TU|TR",
    "SDTM_Variable":"TULNKID|TRLNKID"
  },
  {
    "annotation_table":"非靶病灶-基线",
    "metadata_table":"TU_NTLB",
    "annotation_variable":"病灶部位",
    "metadata_variable":"TUNLOC",
    "SDTM_Domain":"TU",
    "SDTM_Variable":"TULOC"
  },
  {
    "annotation_table":"非靶病灶-基线",
    "metadata_table":"TU_NTLB",
    "annotation_variable":"其他部位",
    "metadata_variable":"TULOCOTH",
    "SDTM_Domain":"TU",
    "SDTM_Variable":"QVAL when QNAM=TULOCOTH when TUTESTCD=TUMIDENT"
  },
  {
    "annotation_table":"非靶病灶-基线",
    "metadata_table":"TU_NTLB",
    "annotation_variable":"病灶描述",
    "metadata_variable":"TUDESC",
    "SDTM_Domain":"TU",
    "SDTM_Variable":"QVAL when QNAM=TUDESC when TUTESTCD=TUMIDENT"
  },
  {
    "annotation_table":"非靶病灶-基线",
    "metadata_table":"TU_NTLB",
    "annotation_variable":"检查日期",
    "metadata_variable":"TUDAT",
    "SDTM_Domain":"TU|TR",
    "SDTM_Variable":"TUDTC|TRDTC"
  },
  {
    "annotation_table":"非靶病灶-基线",
    "metadata_table":"TU_NTLB",
    "annotation_variable":"检查方法",
    "metadata_variable":"TUNMETH",
    "SDTM_Domain":"TU|TR",
    "SDTM_Variable":"TUMETHOD|TRMETHOD"
  },
  {
    "annotation_table":"非靶病灶-基线",
    "metadata_table":"TU_NTLB",
    "annotation_variable":"其他检查方法，请说明",
    "metadata_variable":"TUMETOTH",
    "SDTM_Domain":"TU|TR",
    "SDTM_Variable":"TUMETHOD|TRMETHOD"
  },
  {
    "annotation_table":"肿瘤评估周期",
    "metadata_table":"TUCYC",
    "annotation_variable":"评估周期",
    "metadata_variable":"TUCYC",
    "SDTM_Domain":"SV",
    "SDTM_Variable":"VISIT"
  },
  {
    "annotation_table":"肿瘤评估周期",
    "metadata_table":"TUCYC",
    "annotation_variable":"是否进行肿瘤评估？<选择“是”，触发靶病灶、非靶病灶、新病灶、总体疗效评估>",
    "metadata_variable":"TUYN",
    "SDTM_Domain":"SV",
    "SDTM_Variable":"SVOCCUR"
  },
  {
    "annotation_table":"肿瘤评估周期",
    "metadata_table":"TUCYC",
    "annotation_variable":"若否，请说明原因",
    "metadata_variable":"TUREASND",
    "SDTM_Domain":"SV",
    "SDTM_Variable":"SVREASOC"
  },
  {
    "annotation_table":"靶病灶",
    "metadata_table":"TU_TL",
    "annotation_variable":"评估周期",
    "metadata_variable":"TUCYC",
    "SDTM_Domain":"TU|TR",
    "SDTM_Variable":"QVAL when QNAM=TUCYC|QVAL when QNAM=TRCYC"
  },
  {
    "annotation_table":"靶病灶",
    "metadata_table":"TU_TL",
    "annotation_variable":"所有靶病灶直径总和（mm）",
    "metadata_variable":"TUTOT",
    "SDTM_Domain":"TR",
    "SDTM_Variable":"TRORRES\/TRORRESU when TRTESTCD=SUMDIAM"
  },
  {
    "annotation_table":"靶病灶",
    "metadata_table":"TU_TL",
    "annotation_variable":"病灶编号",
    "metadata_variable":"TULNKID",
    "SDTM_Domain":"TU|TR",
    "SDTM_Variable":"TULNKID|TRLNKID"
  },
  {
    "annotation_table":"靶病灶",
    "metadata_table":"TU_TL",
    "annotation_variable":"检查日期",
    "metadata_variable":"TUDAT",
    "SDTM_Domain":"TU|TR",
    "SDTM_Variable":"TUDTC|TRDTC"
  },
  {
    "annotation_table":"靶病灶",
    "metadata_table":"TU_TL",
    "annotation_variable":"检查方法",
    "metadata_variable":"TUMETH",
    "SDTM_Domain":"TU|TR",
    "SDTM_Variable":"TUMETHOD|TRMETHOD"
  },
  {
    "annotation_table":"靶病灶",
    "metadata_table":"TU_TL",
    "annotation_variable":"其他检查方法，请说明",
    "metadata_variable":"TUMETOTH",
    "SDTM_Domain":"TU|TR",
    "SDTM_Variable":"TUMETHOD|TRMETHOD"
  },
  {
    "annotation_table":"靶病灶",
    "metadata_table":"TU_TL",
    "annotation_variable":"病灶状态",
    "metadata_variable":"TUST",
    "SDTM_Domain":"TU|TR",
    "SDTM_Variable":"TUORRES when TUTESTCD=TUMERGE 若选病灶融合\/TUORRES when TUTESTCD=TUSPLIT 若选病灶分裂|TRORRES when TRTESTCD=TUMSTATE"
  },
  {
    "annotation_table":"靶病灶",
    "metadata_table":"TU_TL",
    "annotation_variable":"直径（mm）（最长径\/淋巴结病灶短径）",
    "metadata_variable":"TUORRES",
    "SDTM_Domain":"TR",
    "SDTM_Variable":"TRORRES\/TRORRESU when TRTESTCD=DIAMETER"
  },
  {
    "annotation_table":"非靶病灶",
    "metadata_table":"TU_NTL",
    "annotation_variable":"评估周期",
    "metadata_variable":"TUCYC",
    "SDTM_Domain":"TU|TR",
    "SDTM_Variable":"QVAL when QNAM=TUCYC|QVAL when QNAM=TRCYC"
  },
  {
    "annotation_table":"非靶病灶",
    "metadata_table":"TU_NTL",
    "annotation_variable":"病灶编号",
    "metadata_variable":"TUNTLKID",
    "SDTM_Domain":"TU|TR",
    "SDTM_Variable":"TULNKID|TRLNKID"
  },
  {
    "annotation_table":"非靶病灶",
    "metadata_table":"TU_NTL",
    "annotation_variable":"检查日期",
    "metadata_variable":"TUDAT",
    "SDTM_Domain":"TU|TR",
    "SDTM_Variable":"TUDTC|TRDTC"
  },
  {
    "annotation_table":"非靶病灶",
    "metadata_table":"TU_NTL",
    "annotation_variable":"检查方法",
    "metadata_variable":"TUNMETH",
    "SDTM_Domain":"TU|TR",
    "SDTM_Variable":"TUMETHOD|TRMETHOD"
  },
  {
    "annotation_table":"非靶病灶",
    "metadata_table":"TU_NTL",
    "annotation_variable":"其他检查方法，请说明",
    "metadata_variable":"TUMETOTH",
    "SDTM_Domain":"TU|TR",
    "SDTM_Variable":"TUMETHOD|TRMETHOD"
  },
  {
    "annotation_table":"非靶病灶",
    "metadata_table":"TU_NTL",
    "annotation_variable":"病灶状态",
    "metadata_variable":"TUNST",
    "SDTM_Domain":"TR",
    "SDTM_Variable":"TRORRES when TRTESTCD=TUMSTATE"
  },
  {
    "annotation_table":"新病灶",
    "metadata_table":"TU_NL1",
    "annotation_variable":"评估周期",
    "metadata_variable":"TUCYC",
    "SDTM_Domain":"TU|TR",
    "SDTM_Variable":"TUORRES=新病灶 when TUTESTCD=TUMIDENT\/QVAL when QNAM=TUCYC|TRORRES when TRTESTCD=TUMSTATE\/QVAL when QNAM=TRCYC"
  },
  {
    "annotation_table":"新病灶",
    "metadata_table":"TU_NL1",
    "annotation_variable":"病灶编号",
    "metadata_variable":"TUNLLKID",
    "SDTM_Domain":"TU|TR",
    "SDTM_Variable":"TULNKID|TRLNKID"
  },
  {
    "annotation_table":"新病灶",
    "metadata_table":"TU_NL1",
    "annotation_variable":"检查日期",
    "metadata_variable":"TUDAT",
    "SDTM_Domain":"TU|TR",
    "SDTM_Variable":"TUDTC|TRDTC"
  },
  {
    "annotation_table":"新病灶",
    "metadata_table":"TU_NL1",
    "annotation_variable":"病灶部位",
    "metadata_variable":"TUNLOC",
    "SDTM_Domain":"TU",
    "SDTM_Variable":"TULOC"
  },
  {
    "annotation_table":"新病灶",
    "metadata_table":"TU_NL1",
    "annotation_variable":"其他部位",
    "metadata_variable":"TULOCOTH",
    "SDTM_Domain":"TU",
    "SDTM_Variable":"QVAL when QNAM=TULOCOTH when TUTESTCD=TUMIDENT"
  },
  {
    "annotation_table":"新病灶",
    "metadata_table":"TU_NL1",
    "annotation_variable":"病灶描述",
    "metadata_variable":"TUDESC",
    "SDTM_Domain":"TU",
    "SDTM_Variable":"QVAL when QNAM=TUDESC when TUTESTCD=TUMIDENT"
  },
  {
    "annotation_table":"新病灶",
    "metadata_table":"TU_NL1",
    "annotation_variable":"检查方法",
    "metadata_variable":"TUNMETH",
    "SDTM_Domain":"TU|TR",
    "SDTM_Variable":"TUMETHOD|TRMETHOD"
  },
  {
    "annotation_table":"新病灶",
    "metadata_table":"TU_NL1",
    "annotation_variable":"其他检查方法，请说明",
    "metadata_variable":"TUMETOTH",
    "SDTM_Domain":"TU|TR",
    "SDTM_Variable":"TUMETHOD|TRMETHOD"
  },
  {
    "annotation_table":"新病灶",
    "metadata_table":"TU_NL2",
    "annotation_variable":"评估周期",
    "metadata_variable":"TUCYC",
    "SDTM_Domain":"TU|TR",
    "SDTM_Variable":"QVAL when QNAM=TUCYC|QVAL when QNAM=TRCYC"
  },
  {
    "annotation_table":"新病灶",
    "metadata_table":"TU_NL2",
    "annotation_variable":"新靶病灶直径总和（mm）",
    "metadata_variable":"TUTOT",
    "SDTM_Domain":"TR",
    "SDTM_Variable":"TRORRES\/TRORRESU when TRTESTCD=SUMDIAM"
  },
  {
    "annotation_table":"新病灶",
    "metadata_table":"TU_NL2",
    "annotation_variable":"病灶编号",
    "metadata_variable":"TUNLLKID",
    "SDTM_Domain":"TU|TR",
    "SDTM_Variable":"TULNKID|TRLNKID"
  },
  {
    "annotation_table":"新病灶",
    "metadata_table":"TU_NL2",
    "annotation_variable":"检查日期",
    "metadata_variable":"TUDAT",
    "SDTM_Domain":"TU|TR",
    "SDTM_Variable":"TUDTC|TRDTC"
  },
  {
    "annotation_table":"新病灶",
    "metadata_table":"TU_NL2",
    "annotation_variable":"病灶部位",
    "metadata_variable":"TUNLOC",
    "SDTM_Domain":"TU",
    "SDTM_Variable":"TULOC"
  },
  {
    "annotation_table":"新病灶",
    "metadata_table":"TU_NL2",
    "annotation_variable":"其他部位",
    "metadata_variable":"TULOCOTH",
    "SDTM_Domain":"TU",
    "SDTM_Variable":"QVAL when QNAM=TULOCOTH when TUTESTCD=TUMIDENT"
  },
  {
    "annotation_table":"新病灶",
    "metadata_table":"TU_NL2",
    "annotation_variable":"病灶描述",
    "metadata_variable":"TUDESC",
    "SDTM_Domain":"TU",
    "SDTM_Variable":"QVAL when QNAM=TUDESC when TUTESTCD=TUMIDENT"
  },
  {
    "annotation_table":"新病灶",
    "metadata_table":"TU_NL2",
    "annotation_variable":"检查方法",
    "metadata_variable":"TUNMETH",
    "SDTM_Domain":"TU|TR",
    "SDTM_Variable":"TUMETHOD|TRMETHOD"
  },
  {
    "annotation_table":"新病灶",
    "metadata_table":"TU_NL2",
    "annotation_variable":"其他检查方法，请说明",
    "metadata_variable":"TUMETOTH",
    "SDTM_Domain":"TU|TR",
    "SDTM_Variable":"TUMETHOD|TRMETHOD"
  },
  {
    "annotation_table":"新病灶",
    "metadata_table":"TU_NL2",
    "annotation_variable":"与上一次评价相比是否为新发病灶",
    "metadata_variable":"TUNLYN",
    "SDTM_Domain":"TU",
    "SDTM_Variable":"QVAL when QNAM=TUNLYN when TUTESTCD=TUMIDENT"
  },
  {
    "annotation_table":"新病灶",
    "metadata_table":"TU_NL2",
    "annotation_variable":"是否为新靶病灶？",
    "metadata_variable":"TUNTYN",
    "SDTM_Domain":"TU",
    "SDTM_Variable":"TUORRES=新靶病灶 when TUTESTCD=TUMIDENT\/QVAL when QNAM=TUNTYN when TUTESTCD=TUMIDENT"
  },
  {
    "annotation_table":"新病灶",
    "metadata_table":"TU_NL2",
    "annotation_variable":"新靶病灶状态",
    "metadata_variable":"TUST",
    "SDTM_Domain":"TU|TR",
    "SDTM_Variable":"TUORRES when TUTESTCD=TUMERGE 若选病灶融合\/TUORRES when TUTESTCD=TUSPLIT 若选病灶分裂|TRORRES when TRTESTCD=TUMSTATE"
  },
  {
    "annotation_table":"新病灶",
    "metadata_table":"TU_NL2",
    "annotation_variable":"新非靶病灶状态",
    "metadata_variable":"TUNST",
    "SDTM_Domain":"TU|TR",
    "SDTM_Variable":"TUORRES=新非靶病灶 when TUTESTCD=TUMIDENT|TRORRES when TRTESTCD=TUMSTATE"
  },
  {
    "annotation_table":"新病灶",
    "metadata_table":"TU_NL2",
    "annotation_variable":"直径（mm）（最长径\/淋巴结病灶短径）",
    "metadata_variable":"TUORRES",
    "SDTM_Domain":"TR",
    "SDTM_Variable":"TRORRES\/TRORRESU when TRTESTCD=DIAMETER"
  },
  {
    "annotation_table":"总体疗效评估（RECIST 1.1）",
    "metadata_table":"RS",
    "annotation_variable":"评估周期",
    "metadata_variable":"RSCYC",
    "SDTM_Domain":"RS",
    "SDTM_Variable":"QVAL when QNAM=RSCYC"
  },
  {
    "annotation_table":"总体疗效评估（RECIST 1.1）",
    "metadata_table":"RS",
    "annotation_variable":"评估日期",
    "metadata_variable":"RSDAT",
    "SDTM_Domain":"RS",
    "SDTM_Variable":"QVAL when QNAM=EVALDTC"
  },
  {
    "annotation_table":"总体疗效评估（RECIST 1.1）",
    "metadata_table":"RS",
    "annotation_variable":"靶病灶疗效评估",
    "metadata_variable":"RSTL",
    "SDTM_Domain":"RS",
    "SDTM_Variable":"RSORRES when RSTESTCD=TRGRESP"
  },
  {
    "annotation_table":"总体疗效评估（RECIST 1.1）",
    "metadata_table":"RS",
    "annotation_variable":"非靶病灶疗效评估",
    "metadata_variable":"RSNTL",
    "SDTM_Domain":"RS",
    "SDTM_Variable":"RSORRES when RSTESTCD=NTRGRESP"
  },
  {
    "annotation_table":"总体疗效评估（RECIST 1.1）",
    "metadata_table":"RS",
    "annotation_variable":"是否有新病灶",
    "metadata_variable":"RSNL",
    "SDTM_Domain":"RS",
    "SDTM_Variable":"RSORRES when RSTESTCD=NEWLIND"
  },
  {
    "annotation_table":"总体疗效评估（RECIST 1.1）",
    "metadata_table":"RS",
    "annotation_variable":"总体疗效评估",
    "metadata_variable":"RSRES",
    "SDTM_Domain":"RS",
    "SDTM_Variable":"RSORRES when RSTESTCD=OVRLRESP"
  },
  {
    "annotation_table":"总体疗效评估（RECIST 1.1）",
    "metadata_table":"RS",
    "annotation_variable":"是否符合疾病进展后继续治疗的标准？<optional>",
    "metadata_variable":"RSPDCTYN",
    "SDTM_Domain":"RS",
    "SDTM_Variable":"QVAL when QNAM=RSPDCTYN"
  },
  {
    "annotation_table":"总体疗效评估（iRECIST）",
    "metadata_table":"RS1",
    "annotation_variable":"评估周期",
    "metadata_variable":"RSCYC",
    "SDTM_Domain":"RS",
    "SDTM_Variable":"QVAL when QNAM=RSCYC"
  },
  {
    "annotation_table":"总体疗效评估（iRECIST）",
    "metadata_table":"RS1",
    "annotation_variable":"评估日期",
    "metadata_variable":"RSDAT",
    "SDTM_Domain":"RS",
    "SDTM_Variable":"QVAL when QNAM=EVALDTC"
  },
  {
    "annotation_table":"总体疗效评估（iRECIST）",
    "metadata_table":"RS1",
    "annotation_variable":"靶病灶疗效评估",
    "metadata_variable":"RS1TL",
    "SDTM_Domain":"RS",
    "SDTM_Variable":"RSORRES when RSTESTCD=TRGRESP"
  },
  {
    "annotation_table":"总体疗效评估（iRECIST）",
    "metadata_table":"RS1",
    "annotation_variable":"非靶病灶疗效评估",
    "metadata_variable":"RS1NTL",
    "SDTM_Domain":"RS",
    "SDTM_Variable":"RSORRES when RSTESTCD=NTRGRESP"
  },
  {
    "annotation_table":"总体疗效评估（iRECIST）",
    "metadata_table":"RS1",
    "annotation_variable":"新靶病灶疗效评估",
    "metadata_variable":"RS1NETL",
    "SDTM_Domain":"RS",
    "SDTM_Variable":"RSORRES when RSTESTCD=NEWTRSP"
  },
  {
    "annotation_table":"总体疗效评估（iRECIST）",
    "metadata_table":"RS1",
    "annotation_variable":"新非靶病灶疗效评估",
    "metadata_variable":"RS1NNTL",
    "SDTM_Domain":"RS",
    "SDTM_Variable":"RSORRES when RSTESTCD=NEWNTRSP"
  },
  {
    "annotation_table":"总体疗效评估（iRECIST）",
    "metadata_table":"RS1",
    "annotation_variable":"总体疗效评估",
    "metadata_variable":"RS1RES",
    "SDTM_Domain":"RS",
    "SDTM_Variable":"RSORRES when RSTESTCD=OVRLRESP"
  },
  {
    "annotation_table":"ECOG评分",
    "metadata_table":"ECOG",
    "annotation_variable":"是否进行ECOG评分？",
    "metadata_variable":"ECOGPERF",
    "SDTM_Domain":"RS",
    "SDTM_Variable":"RSSTAT=未查 if [RAW]ECOGPERF=否"
  },
  {
    "annotation_table":"ECOG评分",
    "metadata_table":"ECOG",
    "annotation_variable":"评分日期",
    "metadata_variable":"ECOGDAT",
    "SDTM_Domain":"RS",
    "SDTM_Variable":"RSDTC when RSCAT=ECOG 评分"
  },
  {
    "annotation_table":"ECOG评分",
    "metadata_table":"ECOG",
    "annotation_variable":"ECOG评分",
    "metadata_variable":"ECOGSCO",
    "SDTM_Domain":"RS",
    "SDTM_Variable":"RSORRES when RSCAT=ECOG评分"
  },
  {
    "annotation_table":"骨髓穿刺",
    "metadata_table":"BMA",
    "annotation_variable":"是否进行骨髓穿刺？",
    "metadata_variable":"BMPERF",
    "SDTM_Domain":"LB",
    "SDTM_Variable":"LBSTAT=未查 if [RAW]BMPERF=否 when LBTESTCD=LBALL and LBCAT=骨髓穿刺"
  },
  {
    "annotation_table":"骨髓穿刺",
    "metadata_table":"BMA",
    "annotation_variable":"穿刺日期",
    "metadata_variable":"BMDAT",
    "SDTM_Domain":"LB",
    "SDTM_Variable":"LBDTC"
  },
  {
    "annotation_table":"骨髓穿刺",
    "metadata_table":"BMA",
    "annotation_variable":"穿刺部位",
    "metadata_variable":"BMALOC",
    "SDTM_Domain":"LB",
    "SDTM_Variable":"LBLOC"
  },
  {
    "annotation_table":"骨髓穿刺",
    "metadata_table":"BMA",
    "annotation_variable":"其他部位，请描述",
    "metadata_variable":"BMLOCOTH",
    "SDTM_Domain":"LB",
    "SDTM_Variable":"QVAL when QNAM=LBLOCOTH"
  },
  {
    "annotation_table":"骨髓穿刺",
    "metadata_table":"BMA",
    "annotation_variable":"骨髓涂片浆细胞百分比(%)",
    "metadata_variable":"BMPLAA",
    "SDTM_Domain":"LB",
    "SDTM_Variable":"LBORRES\/LBORRESU when LBTESTCD=PLSTCECE when LBSPEC=骨髓"
  },
  {
    "annotation_table":"骨髓穿刺",
    "metadata_table":"BMA",
    "annotation_variable":"骨髓涂片浆细胞个数（个）",
    "metadata_variable":"BMPLAB",
    "SDTM_Domain":"LB",
    "SDTM_Variable":"LBORRES\/LBORRESU when LBTESTCD=PC when LBSPEC=骨髓"
  },
  {
    "annotation_table":"骨髓穿刺",
    "metadata_table":"BMA",
    "annotation_variable":"血涂片浆细胞百分比(%)",
    "metadata_variable":"BMPLAC",
    "SDTM_Domain":"LB",
    "SDTM_Variable":"LBORRES\/LBORRESU when LBTESTCD=PLSTCECE when LBSPEC=血"
  },
  {
    "annotation_table":"骨髓穿刺",
    "metadata_table":"BMA",
    "annotation_variable":"血涂片浆细胞个数（个）",
    "metadata_variable":"BMPLAD",
    "SDTM_Domain":"LB",
    "SDTM_Variable":"LBORRES\/LBORRESU when LBTESTCD=PC when LBSPEC=血"
  },
  {
    "annotation_table":"骨髓穿刺",
    "metadata_table":"BMA",
    "annotation_variable":"骨髓增生评价",
    "metadata_variable":"BMRES",
    "SDTM_Domain":"LB",
    "SDTM_Variable":"LBORRES when LBTESTCD=BMRES"
  },
  {
    "annotation_table":"骨髓穿刺",
    "metadata_table":"BMA",
    "annotation_variable":"是否进行流式细胞术",
    "metadata_variable":"BMFCMYN",
    "SDTM_Domain":"LB",
    "SDTM_Variable":"LBORRES when LBTESTCD=BMFCMYN"
  },
  {
    "annotation_table":"骨髓穿刺",
    "metadata_table":"BMA",
    "annotation_variable":"Kappa\/Lambda比值(%)<是否进行流式细胞术选择是时触发>",
    "metadata_variable":"BMKL",
    "SDTM_Domain":"LB",
    "SDTM_Variable":"LBORRES\/LBORRESU when LBTESTCD=KLCLLC"
  },
  {
    "annotation_table":"骨髓穿刺",
    "metadata_table":"BMA",
    "annotation_variable":"流式细胞术结果-单克隆浆细胞占比(%)<是否进行流式细胞术选择是时触发>",
    "metadata_variable":"BMPLAA",
    "SDTM_Domain":"LB",
    "SDTM_Variable":"LBORRES\/LBORRESU when LBTESTCD=BMPLAA"
  },
  {
    "annotation_table":"骨髓活检",
    "metadata_table":"BMB",
    "annotation_variable":"是否进行骨髓活检？",
    "metadata_variable":"BMPERF",
    "SDTM_Domain":"LB",
    "SDTM_Variable":"LBSTAT=未查 if [RAW]BMPERF=否 when LBTESTCD=LBALL and LBCAT=骨髓活检"
  },
  {
    "annotation_table":"骨髓活检",
    "metadata_table":"BMB",
    "annotation_variable":"采样日期",
    "metadata_variable":"BMDAT",
    "SDTM_Domain":"LB",
    "SDTM_Variable":"LBDTC"
  },
  {
    "annotation_table":"骨髓活检",
    "metadata_table":"BMB",
    "annotation_variable":"活检部位",
    "metadata_variable":"BMBLOC",
    "SDTM_Domain":"LB",
    "SDTM_Variable":"LBLOC"
  },
  {
    "annotation_table":"骨髓活检",
    "metadata_table":"BMB",
    "annotation_variable":"其他部位，请描述",
    "metadata_variable":"BMLOCOTH",
    "SDTM_Domain":"LB",
    "SDTM_Variable":"QVAL when QNAM=LBLOCOTH"
  },
  {
    "annotation_table":"骨髓活检",
    "metadata_table":"BMB",
    "annotation_variable":"骨髓增生评价",
    "metadata_variable":"BMRES",
    "SDTM_Domain":"LB",
    "SDTM_Variable":"LBORRES when LBTESTCD=BMRES"
  },
  {
    "annotation_table":"骨髓活检",
    "metadata_table":"BMB",
    "annotation_variable":"Kappa\/Lambda比值(%)<是否进行流式细胞术选择是时触发>",
    "metadata_variable":"BMKL",
    "SDTM_Domain":"LB",
    "SDTM_Variable":"LBORRES\/LBORRESU when LBTESTCD=KLCLLC"
  },
  {
    "annotation_table":"骨髓活检",
    "metadata_table":"BMB",
    "annotation_variable":"骨髓活检浆细胞百分比(%)<是否进行流式细胞术选择是时触发>",
    "metadata_variable":"BMPLAA",
    "SDTM_Domain":"LB",
    "SDTM_Variable":"LBORRES\/LBORRESU when LBTESTCD=BMPLAA"
  },
  {
    "annotation_table":"骨骼检查-筛选期",
    "metadata_table":"BES",
    "annotation_variable":"是否进行骨骼检查？",
    "metadata_variable":"BEPERF",
    "SDTM_Domain":"MK",
    "SDTM_Variable":"MKSTAT=未查 if [RAW]BEPERF=否 when MKTESTCD=MKALL and MKCAT=骨骼检查"
  },
  {
    "annotation_table":"骨骼检查-筛选期",
    "metadata_table":"BES",
    "annotation_variable":"检查日期",
    "metadata_variable":"BEDAT",
    "SDTM_Domain":"MK",
    "SDTM_Variable":"MKDTC"
  },
  {
    "annotation_table":"骨骼检查-筛选期",
    "metadata_table":"BES",
    "annotation_variable":"检查方法",
    "metadata_variable":"BEMETH",
    "SDTM_Domain":"MK",
    "SDTM_Variable":"MKMETHOD"
  },
  {
    "annotation_table":"骨骼检查-筛选期",
    "metadata_table":"BES",
    "annotation_variable":"其他，请说明",
    "metadata_variable":"BEMETOTH",
    "SDTM_Domain":"MK",
    "SDTM_Variable":"MKMETHOD"
  },
  {
    "annotation_table":"骨骼检查-筛选期",
    "metadata_table":"BES",
    "annotation_variable":"是否有MM相关的溶骨性病灶？",
    "metadata_variable":"BEMMYN",
    "SDTM_Domain":"MK",
    "SDTM_Variable":"MKORRES when MKTESTCD=MKMMYN"
  },
  {
    "annotation_table":"骨骼检查-筛选期",
    "metadata_table":"BES",
    "annotation_variable":"溶骨性病灶数量<是否有MM相关的溶骨性病灶选择是时触发>",
    "metadata_variable":"BEMMNUM",
    "SDTM_Domain":"MK",
    "SDTM_Variable":"QVAL when QNAM=MKMMNUM when MKTESTCD=MKMMYN"
  },
  {
    "annotation_table":"骨骼检查-筛选期",
    "metadata_table":"BES",
    "annotation_variable":"存在溶骨性病灶的解剖部位<是否有MM相关的溶骨性病灶选择是时触发>",
    "metadata_variable":"BEMMLOC",
    "SDTM_Domain":"MK",
    "SDTM_Variable":"QVAL when QNAM=MKMMLOC when MKTESTCD=MKMMYN"
  },
  {
    "annotation_table":"骨骼检查-筛选期",
    "metadata_table":"BES",
    "annotation_variable":"其他部位，请描述",
    "metadata_variable":"BEMMLOCO",
    "SDTM_Domain":"MK",
    "SDTM_Variable":"QVAL when QNAM=MKMMLOTH when MKTESTCD=MKMMYN"
  },
  {
    "annotation_table":"骨骼检查-筛选期",
    "metadata_table":"BES",
    "annotation_variable":"是否存在骨骼瘤相关的弥漫性骨质疏松<是否进行骨骼检查选择是时触发>",
    "metadata_variable":"BEDOYN",
    "SDTM_Domain":"MK",
    "SDTM_Variable":"MKORRES when MKTESTCD=MKDOYN"
  },
  {
    "annotation_table":"骨骼检查",
    "metadata_table":"BE",
    "annotation_variable":"是否进行骨骼检查？",
    "metadata_variable":"BEPERF",
    "SDTM_Domain":"MK",
    "SDTM_Variable":"MKSTAT=未查 if [RAW]BEPERF=否 when MKTESTCD=MKALL and MKCAT=骨骼检查"
  },
  {
    "annotation_table":"骨骼检查",
    "metadata_table":"BE",
    "annotation_variable":"检查日期",
    "metadata_variable":"BEDAT",
    "SDTM_Domain":"MK",
    "SDTM_Variable":"MKDTC"
  },
  {
    "annotation_table":"骨骼检查",
    "metadata_table":"BE",
    "annotation_variable":"检查方法",
    "metadata_variable":"BEMETH",
    "SDTM_Domain":"MK",
    "SDTM_Variable":"MKMETHOD"
  },
  {
    "annotation_table":"骨骼检查",
    "metadata_table":"BE",
    "annotation_variable":"其他，请说明",
    "metadata_variable":"BEMETOTH",
    "SDTM_Domain":"MK",
    "SDTM_Variable":"MKMETHOD"
  },
  {
    "annotation_table":"骨骼检查",
    "metadata_table":"BE",
    "annotation_variable":"是否有MM相关的溶骨性病灶？",
    "metadata_variable":"BEMMYN",
    "SDTM_Domain":"MK",
    "SDTM_Variable":"MKORRES when MKTESTCD=MKMMYN"
  },
  {
    "annotation_table":"骨骼检查",
    "metadata_table":"BE",
    "annotation_variable":"溶骨性病灶数量<是否有MM相关的溶骨性病灶选择是时触发>",
    "metadata_variable":"BEMMNUM",
    "SDTM_Domain":"MK",
    "SDTM_Variable":"QVAL when QNAM=MKMMNUM when MKTESTCD=MKMMYN"
  },
  {
    "annotation_table":"骨骼检查",
    "metadata_table":"BE",
    "annotation_variable":"存在溶骨性病灶的解剖部位<是否有MM相关的溶骨性病灶选择是时触发>",
    "metadata_variable":"BEMMLOC",
    "SDTM_Domain":"MK",
    "SDTM_Variable":"QVAL when QNAM=MKMMLOC when MKTESTCD=MKMMYN"
  },
  {
    "annotation_table":"骨骼检查",
    "metadata_table":"BE",
    "annotation_variable":"其他部位，请描述",
    "metadata_variable":"BEMMLOCO",
    "SDTM_Domain":"MK",
    "SDTM_Variable":"QVAL when QNAM=MKMMLOTH when MKTESTCD=MKMMYN"
  },
  {
    "annotation_table":"骨骼检查",
    "metadata_table":"BE",
    "annotation_variable":"是否存在骨骼瘤相关的弥漫性骨质疏松？<是否进行骨骼检查选择是时触发>",
    "metadata_variable":"BEDOYN",
    "SDTM_Domain":"MK",
    "SDTM_Variable":"MKORRES when MKTESTCD=MKDOYN"
  },
  {
    "annotation_table":"骨骼检查",
    "metadata_table":"BE",
    "annotation_variable":"本次评估最后检查日期",
    "metadata_variable":"BELDAT",
    "SDTM_Domain":"MK",
    "SDTM_Variable":"MKORRES when MKTESTCD=MKLDTC"
  },
  {
    "annotation_table":"骨骼检查",
    "metadata_table":"BE",
    "annotation_variable":"基线和\/或基线后的骨骼病变情况",
    "metadata_variable":"BECHA",
    "SDTM_Domain":"MK",
    "SDTM_Variable":"MKORRES when MKTESTCD=MKCHA"
  },
  {
    "annotation_table":"浆细胞瘤评估-筛选期",
    "metadata_table":"PLS",
    "annotation_variable":"是否有浆细胞瘤？",
    "metadata_variable":"PLYN",
    "SDTM_Domain":null,
    "SDTM_Variable":"NOT SUBMITTED"
  },
  {
    "annotation_table":"浆细胞瘤评估-筛选期",
    "metadata_table":"PLS",
    "annotation_variable":"SPD(mm^2)最大垂直径乘积之和",
    "metadata_variable":"PLSPDTOT",
    "SDTM_Domain":"TR",
    "SDTM_Variable":"TRORRES when TRTESTCD=SUMPPD\/TRORRESU=mm2"
  },
  {
    "annotation_table":"浆细胞瘤评估-筛选期",
    "metadata_table":"PLS",
    "annotation_variable":"病灶编号",
    "metadata_variable":"PLLNKID",
    "SDTM_Domain":"TU|TR",
    "SDTM_Variable":"TULNKID|TRLNKID"
  },
  {
    "annotation_table":"浆细胞瘤评估-筛选期",
    "metadata_table":"PLS",
    "annotation_variable":"病灶部位",
    "metadata_variable":"PLLOC",
    "SDTM_Domain":"TU",
    "SDTM_Variable":"TULOC"
  },
  {
    "annotation_table":"浆细胞瘤评估-筛选期",
    "metadata_table":"PLS",
    "annotation_variable":"其他部位",
    "metadata_variable":"PLLOCOTH",
    "SDTM_Domain":"TU",
    "SDTM_Variable":"QVAL when QNAM=TULOCOTH when TUTESTCD=TUMIDENT"
  },
  {
    "annotation_table":"浆细胞瘤评估-筛选期",
    "metadata_table":"PLS",
    "annotation_variable":"病灶描述",
    "metadata_variable":"PLDESC",
    "SDTM_Domain":"TU",
    "SDTM_Variable":"QVAL when QNAM=TUDESC when TUTESTCD=TUMIDENT"
  },
  {
    "annotation_table":"浆细胞瘤评估-筛选期",
    "metadata_table":"PLS",
    "annotation_variable":"检查日期",
    "metadata_variable":"PLDAT",
    "SDTM_Domain":"TU|TR",
    "SDTM_Variable":"TUDTC|TRDTC"
  },
  {
    "annotation_table":"浆细胞瘤评估-筛选期",
    "metadata_table":"PLS",
    "annotation_variable":"检查方法",
    "metadata_variable":"PLMETH",
    "SDTM_Domain":"TU|TR",
    "SDTM_Variable":"TUMETHOD|TRMETHOD"
  },
  {
    "annotation_table":"浆细胞瘤评估-筛选期",
    "metadata_table":"PLS",
    "annotation_variable":"其他检查方法，请说明",
    "metadata_variable":"PLMETOTH",
    "SDTM_Domain":"TU|TR",
    "SDTM_Variable":"TUMETHOD|TRMETHOD"
  },
  {
    "annotation_table":"浆细胞瘤评估-筛选期",
    "metadata_table":"PLS",
    "annotation_variable":"最长直径(mm)",
    "metadata_variable":"PLMAX",
    "SDTM_Domain":"TR",
    "SDTM_Variable":"TRORRES when TRTESTCD=LDIAM\/TRORRESU=mm"
  },
  {
    "annotation_table":"浆细胞瘤评估-筛选期",
    "metadata_table":"PLS",
    "annotation_variable":"最短轴向垂直直径(mm)",
    "metadata_variable":"PLMIN",
    "SDTM_Domain":"TR",
    "SDTM_Variable":"TRORRES when TRTESTCD=LPERP\/TRORRESU=mm"
  },
  {
    "annotation_table":"浆细胞瘤评估-筛选期",
    "metadata_table":"PLS",
    "annotation_variable":"最大垂直径乘积(mm^2)",
    "metadata_variable":"PLMAXM",
    "SDTM_Domain":"TR",
    "SDTM_Variable":"TRORRES when TRTESTCD=PPD\/TRORRESU=mm2"
  },
  {
    "annotation_table":"浆细胞瘤评估",
    "metadata_table":"PLA",
    "annotation_variable":"是否进行浆细胞瘤评估？",
    "metadata_variable":"PLPERF",
    "SDTM_Domain":null,
    "SDTM_Variable":"NOT SUBMITTED"
  },
  {
    "annotation_table":"浆细胞瘤评估",
    "metadata_table":"PLA",
    "annotation_variable":"是否发现新发浆细胞瘤？",
    "metadata_variable":"PLYN",
    "SDTM_Domain":"TR",
    "SDTM_Variable":"TRORRES when TRTESTCD=TUMSTATE"
  },
  {
    "annotation_table":"浆细胞瘤评估",
    "metadata_table":"PLA",
    "annotation_variable":"SPD(mm^2)最大垂直径乘积之和",
    "metadata_variable":"PLSPDTOT",
    "SDTM_Domain":"TR",
    "SDTM_Variable":"TRORRES when TRTESTCD=SUMPPD\/TRORRESU=mm2"
  },
  {
    "annotation_table":"浆细胞瘤评估",
    "metadata_table":"PLA",
    "annotation_variable":"病灶编号",
    "metadata_variable":"PLLNKID",
    "SDTM_Domain":"TU|TR",
    "SDTM_Variable":"TULNKID|TRLNKID"
  },
  {
    "annotation_table":"浆细胞瘤评估",
    "metadata_table":"PLA",
    "annotation_variable":"病灶部位",
    "metadata_variable":"PLLOC",
    "SDTM_Domain":"TU",
    "SDTM_Variable":"TULOC"
  },
  {
    "annotation_table":"浆细胞瘤评估",
    "metadata_table":"PLA",
    "annotation_variable":"其他部位",
    "metadata_variable":"PLLOCOTH",
    "SDTM_Domain":"TU",
    "SDTM_Variable":"QVAL when QNAM=TULOCOTH when TUTESTCD=TUMIDENT"
  },
  {
    "annotation_table":"浆细胞瘤评估",
    "metadata_table":"PLA",
    "annotation_variable":"病灶描述",
    "metadata_variable":"PLDESC",
    "SDTM_Domain":"TU",
    "SDTM_Variable":"QVAL when QNAM=TUDESC when TUTESTCD=TUMIDENT"
  },
  {
    "annotation_table":"浆细胞瘤评估",
    "metadata_table":"PLA",
    "annotation_variable":"检查日期",
    "metadata_variable":"PLDAT",
    "SDTM_Domain":"TU|TR",
    "SDTM_Variable":"TUDTC|TRDTC"
  },
  {
    "annotation_table":"浆细胞瘤评估",
    "metadata_table":"PLA",
    "annotation_variable":"检查方法",
    "metadata_variable":"PLMETH",
    "SDTM_Domain":"TU|TR",
    "SDTM_Variable":"TUMETHOD|TRMETHOD"
  },
  {
    "annotation_table":"浆细胞瘤评估",
    "metadata_table":"PLA",
    "annotation_variable":"其他检查方法，请说明",
    "metadata_variable":"PLMETOTH",
    "SDTM_Domain":"TU|TR",
    "SDTM_Variable":"TUMETHOD|TRMETHOD"
  },
  {
    "annotation_table":"浆细胞瘤评估",
    "metadata_table":"PLA",
    "annotation_variable":"最长直径(mm)",
    "metadata_variable":"PLMAX",
    "SDTM_Domain":"TR",
    "SDTM_Variable":"TRORRES when TRTESTCD=LDIAM\/TRORRESU=mm"
  },
  {
    "annotation_table":"浆细胞瘤评估",
    "metadata_table":"PLA",
    "annotation_variable":"最短轴向垂直直径(mm)",
    "metadata_variable":"PLMIN",
    "SDTM_Domain":"TR",
    "SDTM_Variable":"TRORRES when TRTESTCD=LPERP\/TRORRESU=mm"
  },
  {
    "annotation_table":"浆细胞瘤评估",
    "metadata_table":"PLA",
    "annotation_variable":"最大垂直径乘积(mm^2)",
    "metadata_variable":"PLMAXM",
    "SDTM_Domain":"TR",
    "SDTM_Variable":"TRORRES when TRTESTCD=PPD\/TRORRESU=mm2"
  },
  {
    "annotation_table":"疗效评估(IMWG)",
    "metadata_table":"IMWG",
    "annotation_variable":"是否进行疗效评估？",
    "metadata_variable":"IMWGPERF",
    "SDTM_Domain":"RS",
    "SDTM_Variable":"RSSTAT=未查 if [RAW]IMWGPERF=否"
  },
  {
    "annotation_table":"疗效评估(IMWG)",
    "metadata_table":"IMWG",
    "annotation_variable":"评估日期",
    "metadata_variable":"IMWGDAT",
    "SDTM_Domain":"RS",
    "SDTM_Variable":"QVAL when QNAM=EVALDTC"
  },
  {
    "annotation_table":"疗效评估(IMWG)",
    "metadata_table":"IMWG",
    "annotation_variable":"疗效评估(传统疗评)",
    "metadata_variable":"IMWGRES",
    "SDTM_Domain":"RS",
    "SDTM_Variable":"RSORRES when RSTESTCD=OVRLRESP"
  },
  {
    "annotation_table":"疗效评估(IMWG)",
    "metadata_table":"IMWG",
    "annotation_variable":"是否达到了MRD阴性或MRD阴性后复发",
    "metadata_variable":"IMWGMRD",
    "SDTM_Domain":"RS",
    "SDTM_Variable":"RSORRES when RSTESTCD=IMWGMRD"
  },
  {
    "annotation_table":"疗效评估(IMWG)",
    "metadata_table":"IMWG",
    "annotation_variable":"疗效评估(MRD疗评)",
    "metadata_variable":"IMWGRESM",
    "SDTM_Domain":"RS",
    "SDTM_Variable":"RSORRES when RSTESTCD=IMWGRESM"
  },
  {
    "annotation_table":"既往抗肿瘤治疗史问询页",
    "metadata_table":"PRPYN",
    "annotation_variable":"是否有既往抗肿瘤药物治疗史？",
    "metadata_variable":"CM1YN",
    "SDTM_Domain":null,
    "SDTM_Variable":"NOT SUBMITTED"
  },
  {
    "annotation_table":"既往抗肿瘤治疗史问询页",
    "metadata_table":"PRPYN",
    "annotation_variable":"是否有既往抗肿瘤中药治疗史？",
    "metadata_variable":"CM2YN",
    "SDTM_Domain":null,
    "SDTM_Variable":"NOT SUBMITTED"
  },
  {
    "annotation_table":"既往抗肿瘤治疗史问询页",
    "metadata_table":"PRPYN",
    "annotation_variable":"是否有既往抗肿瘤放疗史？",
    "metadata_variable":"PR1YN",
    "SDTM_Domain":null,
    "SDTM_Variable":"NOT SUBMITTED"
  },
  {
    "annotation_table":"既往抗肿瘤治疗史问询页",
    "metadata_table":"PRPYN",
    "annotation_variable":"是否有既往抗肿瘤手术史？",
    "metadata_variable":"PR2YN",
    "SDTM_Domain":null,
    "SDTM_Variable":"NOT SUBMITTED"
  },
  {
    "annotation_table":"既往抗肿瘤治疗史问询页",
    "metadata_table":"PRPYN",
    "annotation_variable":"是否有既往抗肿瘤其他治疗史？",
    "metadata_variable":"PR3YN",
    "SDTM_Domain":null,
    "SDTM_Variable":"NOT SUBMITTED"
  },
  {
    "annotation_table":"既往抗肿瘤药物治疗史",
    "metadata_table":"CM1",
    "annotation_variable":"治疗方案名称",
    "metadata_variable":"CMREG",
    "SDTM_Domain":"CM",
    "SDTM_Variable":"CMDOSRGM"
  },
  {
    "annotation_table":"既往抗肿瘤药物治疗史",
    "metadata_table":"CM1",
    "annotation_variable":"治疗目的",
    "metadata_variable":"CMPUR",
    "SDTM_Domain":"CM",
    "SDTM_Variable":"QVAL when QNAM=CMPUR"
  },
  {
    "annotation_table":"既往抗肿瘤药物治疗史",
    "metadata_table":"CM1",
    "annotation_variable":"其他目的，请说明",
    "metadata_variable":"CMPUROTH",
    "SDTM_Domain":"CM",
    "SDTM_Variable":"QVAL when QNAM=CMPUROTH"
  },
  {
    "annotation_table":"既往抗肿瘤药物治疗史",
    "metadata_table":"CM1",
    "annotation_variable":"治疗线数<optional>",
    "metadata_variable":"CMLIN",
    "SDTM_Domain":"CM",
    "SDTM_Variable":"QVAL when QNAM=CMLIN"
  },
  {
    "annotation_table":"既往抗肿瘤药物治疗史",
    "metadata_table":"CM1",
    "annotation_variable":"开始日期",
    "metadata_variable":"CMSTDAT",
    "SDTM_Domain":"CM",
    "SDTM_Variable":"CMSTDTC"
  },
  {
    "annotation_table":"既往抗肿瘤药物治疗史",
    "metadata_table":"CM1",
    "annotation_variable":"结束日期",
    "metadata_variable":"CMENDAT",
    "SDTM_Domain":"CM",
    "SDTM_Variable":"CMENDTC"
  },
  {
    "annotation_table":"既往抗肿瘤药物治疗史",
    "metadata_table":"CM1",
    "annotation_variable":"治疗终止原因",
    "metadata_variable":"CMREASND",
    "SDTM_Domain":"CM",
    "SDTM_Variable":"QVAL when QNAM=CMETREAS"
  },
  {
    "annotation_table":"既往抗肿瘤药物治疗史",
    "metadata_table":"CM1",
    "annotation_variable":"其他，请详述",
    "metadata_variable":"CMREASO",
    "SDTM_Domain":"CM",
    "SDTM_Variable":"QVAL when QNAM=CMETROTH"
  },
  {
    "annotation_table":"既往抗肿瘤药物治疗史",
    "metadata_table":"CM1",
    "annotation_variable":"疾病进展日期<optional>",
    "metadata_variable":"CMPDDAT",
    "SDTM_Domain":"CM",
    "SDTM_Variable":"QVAL when QNAM=CMPDDTC"
  },
  {
    "annotation_table":"既往抗肿瘤药物治疗史",
    "metadata_table":"CM1",
    "annotation_variable":"最佳疗效评估",
    "metadata_variable":"CMBEA",
    "SDTM_Domain":"CM",
    "SDTM_Variable":"QVAL when QNAM=CMBEA"
  },
  {
    "annotation_table":"既往抗肿瘤药物治疗史",
    "metadata_table":"CM1",
    "annotation_variable":"药物名称",
    "metadata_variable":"CMTRT",
    "SDTM_Domain":"CM",
    "SDTM_Variable":"CMTRT"
  },
  {
    "annotation_table":"既往抗肿瘤药物治疗史",
    "metadata_table":"CM1",
    "annotation_variable":"疗程（周期）",
    "metadata_variable":"CMDPER",
    "SDTM_Domain":"CM",
    "SDTM_Variable":"QVAL when QNAM=CMDPER"
  },
  {
    "annotation_table":"既往抗肿瘤药物治疗史",
    "metadata_table":"CM1",
    "annotation_variable":"药物类别<根据项目调整，可放在外面>",
    "metadata_variable":"CMDTYP",
    "SDTM_Domain":"CM",
    "SDTM_Variable":"CMSCAT"
  },
  {
    "annotation_table":"既往抗肿瘤药物治疗史",
    "metadata_table":"CM1",
    "annotation_variable":"药物类别为其他，请说明",
    "metadata_variable":"CMDTYPO",
    "SDTM_Domain":"CM",
    "SDTM_Variable":"QVAL when QNAM=CMSCAOTH"
  },
  {
    "annotation_table":"既往抗肿瘤中药治疗史",
    "metadata_table":"CM2",
    "annotation_variable":"药物名称<需要编码>",
    "metadata_variable":"CMTRT",
    "SDTM_Domain":"CM",
    "SDTM_Variable":"CMTRT"
  },
  {
    "annotation_table":"既往抗肿瘤中药治疗史",
    "metadata_table":"CM2",
    "annotation_variable":"开始日期",
    "metadata_variable":"CMSTDAT",
    "SDTM_Domain":"CM",
    "SDTM_Variable":"CMSTDTC"
  },
  {
    "annotation_table":"既往抗肿瘤中药治疗史",
    "metadata_table":"CM2",
    "annotation_variable":"结束日期",
    "metadata_variable":"CMENDAT",
    "SDTM_Domain":"CM",
    "SDTM_Variable":"CMENDTC"
  },
  {
    "annotation_table":"既往抗肿瘤放疗史",
    "metadata_table":"PR1",
    "annotation_variable":"放疗部位",
    "metadata_variable":"PRLOC",
    "SDTM_Domain":"PR",
    "SDTM_Variable":"PRLOC"
  },
  {
    "annotation_table":"既往抗肿瘤放疗史",
    "metadata_table":"PR1",
    "annotation_variable":"其他部位，请说明",
    "metadata_variable":"PRLOCOTH",
    "SDTM_Domain":"PR",
    "SDTM_Variable":"QVAL when QNAM=PRLOCOTH"
  },
  {
    "annotation_table":"既往抗肿瘤放疗史",
    "metadata_table":"PR1",
    "annotation_variable":"放疗方式<optional>",
    "metadata_variable":"PRMETH",
    "SDTM_Domain":"PR",
    "SDTM_Variable":"PRSCAT"
  },
  {
    "annotation_table":"既往抗肿瘤放疗史",
    "metadata_table":"PR1",
    "annotation_variable":"放疗总剂量",
    "metadata_variable":"PRDSTXT",
    "SDTM_Domain":"PR",
    "SDTM_Variable":"PRDOSE\/PRDOSTXT"
  },
  {
    "annotation_table":"既往抗肿瘤放疗史",
    "metadata_table":"PR1",
    "annotation_variable":"放疗总剂量单位",
    "metadata_variable":"PRDOSU",
    "SDTM_Domain":"PR",
    "SDTM_Variable":"PRDOSU"
  },
  {
    "annotation_table":"既往抗肿瘤放疗史",
    "metadata_table":"PR1",
    "annotation_variable":"其他，请说明",
    "metadata_variable":"PRDOSUO",
    "SDTM_Domain":"PR",
    "SDTM_Variable":"PRDOSU"
  },
  {
    "annotation_table":"既往抗肿瘤放疗史",
    "metadata_table":"PR1",
    "annotation_variable":"放疗目的",
    "metadata_variable":"PRPUR",
    "SDTM_Domain":"PR",
    "SDTM_Variable":"QVAL when QNAM=PRPUR"
  },
  {
    "annotation_table":"既往抗肿瘤放疗史",
    "metadata_table":"PR1",
    "annotation_variable":"其他目的，请说明",
    "metadata_variable":"PRPUROTH",
    "SDTM_Domain":"PR",
    "SDTM_Variable":"QVAL when QNAM=PRPUROTH"
  },
  {
    "annotation_table":"既往抗肿瘤放疗史",
    "metadata_table":"PR1",
    "annotation_variable":"开始日期",
    "metadata_variable":"PRSTDAT",
    "SDTM_Domain":"PR",
    "SDTM_Variable":"PRSTDTC"
  },
  {
    "annotation_table":"既往抗肿瘤放疗史",
    "metadata_table":"PR1",
    "annotation_variable":"结束日期",
    "metadata_variable":"PRENDAT",
    "SDTM_Domain":"PR",
    "SDTM_Variable":"PRENDTC"
  },
  {
    "annotation_table":"既往抗肿瘤手术史",
    "metadata_table":"PR2",
    "annotation_variable":"手术名称",
    "metadata_variable":"PRTRT",
    "SDTM_Domain":"PR",
    "SDTM_Variable":"PRTRT"
  },
  {
    "annotation_table":"既往抗肿瘤手术史",
    "metadata_table":"PR2",
    "annotation_variable":"治疗目的",
    "metadata_variable":"PR2PUR",
    "SDTM_Domain":"PR",
    "SDTM_Variable":"QVAL when QNAM=PRPUR"
  },
  {
    "annotation_table":"既往抗肿瘤手术史",
    "metadata_table":"PR2",
    "annotation_variable":"其他治疗目的，请描述",
    "metadata_variable":"PRPUROTH",
    "SDTM_Domain":"PR",
    "SDTM_Variable":"QVAL when QNAM=PRPUROTH"
  },
  {
    "annotation_table":"既往抗肿瘤手术史",
    "metadata_table":"PR2",
    "annotation_variable":"手术日期",
    "metadata_variable":"PRSTDAT",
    "SDTM_Domain":"PR",
    "SDTM_Variable":"PRSTDTC"
  },
  {
    "annotation_table":"既往抗肿瘤其他治疗史",
    "metadata_table":"PR3",
    "annotation_variable":"治疗方案",
    "metadata_variable":"PRTRT",
    "SDTM_Domain":"PR",
    "SDTM_Variable":"PRTRT"
  },
  {
    "annotation_table":"既往抗肿瘤其他治疗史",
    "metadata_table":"PR3",
    "annotation_variable":"开始日期",
    "metadata_variable":"PRSTDAT",
    "SDTM_Domain":"PR",
    "SDTM_Variable":"PRSTDTC"
  },
  {
    "annotation_table":"既往抗肿瘤其他治疗史",
    "metadata_table":"PR3",
    "annotation_variable":"结束日期",
    "metadata_variable":"PRENDAT",
    "SDTM_Domain":"PR",
    "SDTM_Variable":"PRENDTC"
  },
  {
    "annotation_table":"研究疾病药物治疗史",
    "metadata_table":"CM_DH",
    "annotation_variable":"是否存在研究疾病药物治疗史？",
    "metadata_variable":"CMDHYN",
    "SDTM_Domain":null,
    "SDTM_Variable":"NOT SUBMITTED"
  },
  {
    "annotation_table":"研究疾病药物治疗史",
    "metadata_table":"CM_DH",
    "annotation_variable":"治疗方案名称",
    "metadata_variable":"CMREG",
    "SDTM_Domain":"CM",
    "SDTM_Variable":"CMDOSRGM"
  },
  {
    "annotation_table":"研究疾病药物治疗史",
    "metadata_table":"CM_DH",
    "annotation_variable":"治疗线数",
    "metadata_variable":"CMDHLIN",
    "SDTM_Domain":"CM",
    "SDTM_Variable":"QVAL when QNAM=CMLIN"
  },
  {
    "annotation_table":"研究疾病药物治疗史",
    "metadata_table":"CM_DH",
    "annotation_variable":"其他，请描述",
    "metadata_variable":"CMLINOTH",
    "SDTM_Domain":"CM",
    "SDTM_Variable":"QVAL when QNAM=CMLINOTH"
  },
  {
    "annotation_table":"研究疾病药物治疗史",
    "metadata_table":"CM_DH",
    "annotation_variable":"治疗目的",
    "metadata_variable":"CMDHPUR",
    "SDTM_Domain":"CM",
    "SDTM_Variable":"QVAL when QNAM=CMPUR"
  },
  {
    "annotation_table":"研究疾病药物治疗史",
    "metadata_table":"CM_DH",
    "annotation_variable":"其他目的，请说明",
    "metadata_variable":"CMPUROTH",
    "SDTM_Domain":"CM",
    "SDTM_Variable":"QVAL when QNAM=CMPUROTH"
  },
  {
    "annotation_table":"研究疾病药物治疗史",
    "metadata_table":"CM_DH",
    "annotation_variable":"开始日期",
    "metadata_variable":"CMSTDAT",
    "SDTM_Domain":"CM",
    "SDTM_Variable":"CMSTDTC"
  },
  {
    "annotation_table":"研究疾病药物治疗史",
    "metadata_table":"CM_DH",
    "annotation_variable":"结束日期",
    "metadata_variable":"CMENDAT",
    "SDTM_Domain":"CM",
    "SDTM_Variable":"CMENDTC"
  },
  {
    "annotation_table":"研究疾病药物治疗史",
    "metadata_table":"CM_DH",
    "annotation_variable":"最佳疗效评估",
    "metadata_variable":"CMDHBEA",
    "SDTM_Domain":"CM",
    "SDTM_Variable":"QVAL when QNAM=CMBEA"
  },
  {
    "annotation_table":"研究疾病药物治疗史",
    "metadata_table":"CM_DH",
    "annotation_variable":"完全缓解(CR)\/严格意义的CR(sCR)日期",
    "metadata_variable":"CMCRDAT",
    "SDTM_Domain":"CM",
    "SDTM_Variable":"QVAL when QNAM=CMCRDTC"
  },
  {
    "annotation_table":"研究疾病药物治疗史",
    "metadata_table":"CM_DH",
    "annotation_variable":"既往是否进行MRD检测<选择是时，触发检测方法和MRD结果>",
    "metadata_variable":"CMMRDYN",
    "SDTM_Domain":"CM",
    "SDTM_Variable":"QVAL when QNAM=CMMRDYN"
  },
  {
    "annotation_table":"研究疾病药物治疗史",
    "metadata_table":"CM_DH",
    "annotation_variable":"检测方法",
    "metadata_variable":"CMMETH",
    "SDTM_Domain":"CM",
    "SDTM_Variable":"QVAL when QNAM=CMMRDME"
  },
  {
    "annotation_table":"研究疾病药物治疗史",
    "metadata_table":"CM_DH",
    "annotation_variable":"其他检测方法，请说明",
    "metadata_variable":"CMMEOTH",
    "SDTM_Domain":"CM",
    "SDTM_Variable":"QVAL when QNAM=CMMRDME"
  },
  {
    "annotation_table":"研究疾病药物治疗史",
    "metadata_table":"CM_DH",
    "annotation_variable":"MRD结果",
    "metadata_variable":"CMMRD",
    "SDTM_Domain":"CM",
    "SDTM_Variable":"QVAL when QNAM=CMMRDRES"
  },
  {
    "annotation_table":"研究疾病药物治疗史",
    "metadata_table":"CM_DH",
    "annotation_variable":"其他结果，请说明",
    "metadata_variable":"CMMRDOTH",
    "SDTM_Domain":"CM",
    "SDTM_Variable":"QVAL when QNAM=CMMRDOTH"
  },
  {
    "annotation_table":"研究疾病药物治疗史",
    "metadata_table":"CM_DH",
    "annotation_variable":"治疗结局",
    "metadata_variable":"CMOUT",
    "SDTM_Domain":"CM",
    "SDTM_Variable":"QVAL when QNAM=CMOUT"
  },
  {
    "annotation_table":"研究疾病药物治疗史",
    "metadata_table":"CM_DH",
    "annotation_variable":"复发日期\/难治日期",
    "metadata_variable":"CMRDAT",
    "SDTM_Domain":"CM",
    "SDTM_Variable":"QVAL when QNAM=CMRDTC"
  },
  {
    "annotation_table":"研究疾病药物治疗史",
    "metadata_table":"CM_DH",
    "annotation_variable":"毒性不耐受原因<治疗结局选择毒性不耐受时触发>",
    "metadata_variable":"CMOUTRES",
    "SDTM_Domain":"CM",
    "SDTM_Variable":"QVAL when QNAM=CMOUREAS"
  },
  {
    "annotation_table":"研究疾病药物治疗史",
    "metadata_table":"CM_DH",
    "annotation_variable":"其他，请描述",
    "metadata_variable":"CMOUTOTH",
    "SDTM_Domain":"CM",
    "SDTM_Variable":"QVAL when QNAM=CMOUTOTH"
  },
  {
    "annotation_table":"研究疾病药物治疗史",
    "metadata_table":"CM_DH",
    "annotation_variable":"药物名称",
    "metadata_variable":"DHNAME",
    "SDTM_Domain":"CM",
    "SDTM_Variable":"CMTRT"
  },
  {
    "annotation_table":"研究疾病药物治疗史",
    "metadata_table":"CM_DH",
    "annotation_variable":"药物类别",
    "metadata_variable":"DHTYP",
    "SDTM_Domain":"CM",
    "SDTM_Variable":"CMSCAT"
  },
  {
    "annotation_table":"研究疾病药物治疗史",
    "metadata_table":"CM_DH",
    "annotation_variable":"其他药物类别，请说明",
    "metadata_variable":"DHTYPOTH",
    "SDTM_Domain":"CM",
    "SDTM_Variable":"QVAL when QNAM=CMSCAOTH"
  },
  {
    "annotation_table":"研究疾病药物治疗史",
    "metadata_table":"CM_DH",
    "annotation_variable":"是否难治",
    "metadata_variable":"DHINCUYN",
    "SDTM_Domain":"CM",
    "SDTM_Variable":"QVAL when QNAM=CMINCUYN"
  },
  {
    "annotation_table":"研究疾病药物治疗史",
    "metadata_table":"CM_DH",
    "annotation_variable":"疗程（周期）",
    "metadata_variable":"DHPER",
    "SDTM_Domain":"CM",
    "SDTM_Variable":"QVAL when QNAM=CMPER"
  },
  {
    "annotation_table":"研究疾病药物治疗史",
    "metadata_table":"CM_DH",
    "annotation_variable":"药物开始日期",
    "metadata_variable":"DHSTDAT",
    "SDTM_Domain":"CM",
    "SDTM_Variable":"CMSTDTC"
  },
  {
    "annotation_table":"研究疾病药物治疗史",
    "metadata_table":"CM_DH",
    "annotation_variable":"药物结束日期",
    "metadata_variable":"DHENDAT",
    "SDTM_Domain":"CM",
    "SDTM_Variable":"CMENDTC"
  },
  {
    "annotation_table":"研究疾病细胞疗法治疗史",
    "metadata_table":"PR_CH",
    "annotation_variable":"是否有细胞疗法治疗史？",
    "metadata_variable":"PRYN",
    "SDTM_Domain":null,
    "SDTM_Variable":"NOT SUBMITTED"
  },
  {
    "annotation_table":"研究疾病细胞疗法治疗史",
    "metadata_table":"PR_CH",
    "annotation_variable":"治疗方案名称",
    "metadata_variable":"PRTRT",
    "SDTM_Domain":"PR",
    "SDTM_Variable":"PRTRT"
  },
  {
    "annotation_table":"研究疾病细胞疗法治疗史",
    "metadata_table":"PR_CH",
    "annotation_variable":"治疗线数",
    "metadata_variable":"PRCHLIN",
    "SDTM_Domain":"PR",
    "SDTM_Variable":"QVAL when QNAM=PRLIN"
  },
  {
    "annotation_table":"研究疾病细胞疗法治疗史",
    "metadata_table":"PR_CH",
    "annotation_variable":"其他，请描述",
    "metadata_variable":"PRLINOTH",
    "SDTM_Domain":"PR",
    "SDTM_Variable":"QVAL when QNAM=PRLINOTH"
  },
  {
    "annotation_table":"研究疾病细胞疗法治疗史",
    "metadata_table":"PR_CH",
    "annotation_variable":"靶点类别",
    "metadata_variable":"PRTSYP",
    "SDTM_Domain":"PR",
    "SDTM_Variable":"PRSCAT"
  },
  {
    "annotation_table":"研究疾病细胞疗法治疗史",
    "metadata_table":"PR_CH",
    "annotation_variable":"其他，请描述",
    "metadata_variable":"PRTSYPO",
    "SDTM_Domain":"PR",
    "SDTM_Variable":"QVAL when QNAM=PRSCAOTH"
  },
  {
    "annotation_table":"研究疾病细胞疗法治疗史",
    "metadata_table":"PR_CH",
    "annotation_variable":"开始治疗日期",
    "metadata_variable":"PRSTDAT",
    "SDTM_Domain":"PR",
    "SDTM_Variable":"PRSTDTC"
  },
  {
    "annotation_table":"研究疾病细胞疗法治疗史",
    "metadata_table":"PR_CH",
    "annotation_variable":"结束治疗日期",
    "metadata_variable":"PRENDAT",
    "SDTM_Domain":"PR",
    "SDTM_Variable":"PRENDTC"
  },
  {
    "annotation_table":"研究疾病细胞疗法治疗史",
    "metadata_table":"PR_CH",
    "annotation_variable":"最佳疗效评估",
    "metadata_variable":"PRBEA",
    "SDTM_Domain":"PR",
    "SDTM_Variable":"QVAL when QNAM=PRBEA"
  },
  {
    "annotation_table":"研究疾病细胞疗法治疗史",
    "metadata_table":"PR_CH",
    "annotation_variable":"完全缓解(CR)\/严格意义的CR(sCR)日期",
    "metadata_variable":"PRCRDAT",
    "SDTM_Domain":"PR",
    "SDTM_Variable":"QVAL when QNAM=PRCRDTC"
  },
  {
    "annotation_table":"研究疾病细胞疗法治疗史",
    "metadata_table":"PR_CH",
    "annotation_variable":"治疗结局",
    "metadata_variable":"PROUT",
    "SDTM_Domain":"PR",
    "SDTM_Variable":"QVAL when QNAM=PROUT"
  },
  {
    "annotation_table":"研究疾病细胞疗法治疗史",
    "metadata_table":"PR_CH",
    "annotation_variable":"复发日期\/难治日期",
    "metadata_variable":"PRRDAT",
    "SDTM_Domain":"PR",
    "SDTM_Variable":"QVAL when QNAM=PRRDTC"
  },
  {
    "annotation_table":"研究疾病细胞疗法治疗史",
    "metadata_table":"PR_CH",
    "annotation_variable":"毒性不耐受原因<治疗结局选择毒性不耐受时触发>",
    "metadata_variable":"PROUTRES",
    "SDTM_Domain":"PR",
    "SDTM_Variable":"QVAL when QNAM=PROUREAS"
  },
  {
    "annotation_table":"研究疾病细胞疗法治疗史",
    "metadata_table":"PR_CH",
    "annotation_variable":"其他，请描述",
    "metadata_variable":"PROUTOTH",
    "SDTM_Domain":"PR",
    "SDTM_Variable":"QVAL when QNAM=PROUTOTH"
  },
  {
    "annotation_table":"研究疾病干细胞移植史",
    "metadata_table":"PR_SCH",
    "annotation_variable":"是否有研究疾病干细胞移植史",
    "metadata_variable":"PRYN",
    "SDTM_Domain":null,
    "SDTM_Variable":"NOT SUBMITTED"
  },
  {
    "annotation_table":"研究疾病干细胞移植史",
    "metadata_table":"PR_SCH",
    "annotation_variable":"移植日期",
    "metadata_variable":"PRDAT",
    "SDTM_Domain":"PR",
    "SDTM_Variable":"PRSTDTC"
  },
  {
    "annotation_table":"研究疾病干细胞移植史",
    "metadata_table":"PR_SCH",
    "annotation_variable":"移植类型",
    "metadata_variable":"PRSCHTYP",
    "SDTM_Domain":"PR",
    "SDTM_Variable":"PRSCAT"
  },
  {
    "annotation_table":"研究疾病干细胞移植史",
    "metadata_table":"PR_SCH",
    "annotation_variable":"治疗线数",
    "metadata_variable":"PRSCHLIN",
    "SDTM_Domain":"PR",
    "SDTM_Variable":"QVAL when QNAM=PRLIN"
  },
  {
    "annotation_table":"研究疾病干细胞移植史",
    "metadata_table":"PR_SCH",
    "annotation_variable":"其他，请描述",
    "metadata_variable":"PRLINOTH",
    "SDTM_Domain":"PR",
    "SDTM_Variable":"QVAL when QNAM=PRLINOTH"
  },
  {
    "annotation_table":"后续抗肿瘤治疗问询页",
    "metadata_table":"PRFYN",
    "annotation_variable":"是否进行后续抗肿瘤药物治疗？",
    "metadata_variable":"CM3YN",
    "SDTM_Domain":null,
    "SDTM_Variable":"NOT SUBMITTED"
  },
  {
    "annotation_table":"后续抗肿瘤治疗问询页",
    "metadata_table":"PRFYN",
    "annotation_variable":"是否进行后续抗肿瘤中药治疗？",
    "metadata_variable":"CM4YN",
    "SDTM_Domain":null,
    "SDTM_Variable":"NOT SUBMITTED"
  },
  {
    "annotation_table":"后续抗肿瘤治疗问询页",
    "metadata_table":"PRFYN",
    "annotation_variable":"是否进行后续抗肿瘤放疗？",
    "metadata_variable":"PR4YN",
    "SDTM_Domain":null,
    "SDTM_Variable":"NOT SUBMITTED"
  },
  {
    "annotation_table":"后续抗肿瘤治疗问询页",
    "metadata_table":"PRFYN",
    "annotation_variable":"是否进行后续抗肿瘤手术治疗？",
    "metadata_variable":"PR5YN",
    "SDTM_Domain":null,
    "SDTM_Variable":"NOT SUBMITTED"
  },
  {
    "annotation_table":"后续抗肿瘤治疗问询页",
    "metadata_table":"PRFYN",
    "annotation_variable":"是否进行后续抗肿瘤其他治疗？",
    "metadata_variable":"PR6YN",
    "SDTM_Domain":null,
    "SDTM_Variable":"NOT SUBMITTED"
  },
  {
    "annotation_table":"后续抗肿瘤药物治疗",
    "metadata_table":"CM3",
    "annotation_variable":"治疗方案名称",
    "metadata_variable":"CMREG",
    "SDTM_Domain":"CM",
    "SDTM_Variable":"CMDOSRGM"
  },
  {
    "annotation_table":"后续抗肿瘤药物治疗",
    "metadata_table":"CM3",
    "annotation_variable":"治疗目的",
    "metadata_variable":"CMPUR",
    "SDTM_Domain":"CM",
    "SDTM_Variable":"QVAL when QNAM=CMPUR"
  },
  {
    "annotation_table":"后续抗肿瘤药物治疗",
    "metadata_table":"CM3",
    "annotation_variable":"其他目的，请说明",
    "metadata_variable":"CMPUROTH",
    "SDTM_Domain":"CM",
    "SDTM_Variable":"QVAL when QNAM=CMPUROTH"
  },
  {
    "annotation_table":"后续抗肿瘤药物治疗",
    "metadata_table":"CM3",
    "annotation_variable":"治疗线数<optional>",
    "metadata_variable":"CMLIN",
    "SDTM_Domain":"CM",
    "SDTM_Variable":"QVAL when QNAM=CMLIN"
  },
  {
    "annotation_table":"后续抗肿瘤药物治疗",
    "metadata_table":"CM3",
    "annotation_variable":"开始日期",
    "metadata_variable":"CMSTDAT",
    "SDTM_Domain":"CM",
    "SDTM_Variable":"CMSTDTC"
  },
  {
    "annotation_table":"后续抗肿瘤药物治疗",
    "metadata_table":"CM3",
    "annotation_variable":"是否持续？",
    "metadata_variable":"CMONGO",
    "SDTM_Domain":"CM",
    "SDTM_Variable":"QVAL when QNAM=CMONGO"
  },
  {
    "annotation_table":"后续抗肿瘤药物治疗",
    "metadata_table":"CM3",
    "annotation_variable":"结束日期",
    "metadata_variable":"CMENDAT",
    "SDTM_Domain":"CM",
    "SDTM_Variable":"CMENDTC"
  },
  {
    "annotation_table":"后续抗肿瘤药物治疗",
    "metadata_table":"CM3",
    "annotation_variable":"治疗终止原因",
    "metadata_variable":"CMREASND",
    "SDTM_Domain":"CM",
    "SDTM_Variable":"QVAL when QNAM=CMETREAS"
  },
  {
    "annotation_table":"后续抗肿瘤药物治疗",
    "metadata_table":"CM3",
    "annotation_variable":"其他，请详述",
    "metadata_variable":"CMREASO",
    "SDTM_Domain":"CM",
    "SDTM_Variable":"QVAL when QNAM=CMETROTH"
  },
  {
    "annotation_table":"后续抗肿瘤药物治疗",
    "metadata_table":"CM3",
    "annotation_variable":"疾病进展日期<optional> ",
    "metadata_variable":"CMPDDAT",
    "SDTM_Domain":"CM",
    "SDTM_Variable":"QVAL when QNAM=CMPDDTC"
  },
  {
    "annotation_table":"后续抗肿瘤药物治疗",
    "metadata_table":"CM3",
    "annotation_variable":"最佳疗效评估",
    "metadata_variable":"CMBEA",
    "SDTM_Domain":"CM",
    "SDTM_Variable":"QVAL when QNAM=CMBEA"
  },
  {
    "annotation_table":"后续抗肿瘤药物治疗",
    "metadata_table":"CM3",
    "annotation_variable":"药物名称",
    "metadata_variable":"CMTRT",
    "SDTM_Domain":"CM",
    "SDTM_Variable":"CMTRT"
  },
  {
    "annotation_table":"后续抗肿瘤药物治疗",
    "metadata_table":"CM3",
    "annotation_variable":"疗程（周期）",
    "metadata_variable":"CMDPER",
    "SDTM_Domain":"CM",
    "SDTM_Variable":"QVAL when QNAM=CMPER"
  },
  {
    "annotation_table":"后续抗肿瘤药物治疗",
    "metadata_table":"CM3",
    "annotation_variable":"药物类别",
    "metadata_variable":"CMDTYP",
    "SDTM_Domain":"CM",
    "SDTM_Variable":"CMSCAT"
  },
  {
    "annotation_table":"后续抗肿瘤药物治疗",
    "metadata_table":"CM3",
    "annotation_variable":"药物类别为其他，请说明",
    "metadata_variable":"CMDHTYPO",
    "SDTM_Domain":"CM",
    "SDTM_Variable":"QVAL when QNAM=CMSCAOTH"
  },
  {
    "annotation_table":"后续抗肿瘤中药治疗史",
    "metadata_table":"CM4",
    "annotation_variable":"药物名称",
    "metadata_variable":"CMTRT",
    "SDTM_Domain":"CM",
    "SDTM_Variable":"CMTRT"
  },
  {
    "annotation_table":"后续抗肿瘤中药治疗史",
    "metadata_table":"CM4",
    "annotation_variable":"开始日期",
    "metadata_variable":"CMSTDAT",
    "SDTM_Domain":"CM",
    "SDTM_Variable":"CMSTDTC"
  },
  {
    "annotation_table":"后续抗肿瘤中药治疗史",
    "metadata_table":"CM4",
    "annotation_variable":"是否持续？",
    "metadata_variable":"CMONGO",
    "SDTM_Domain":"CM",
    "SDTM_Variable":"QVAL when QNAM=CMONGO"
  },
  {
    "annotation_table":"后续抗肿瘤中药治疗史",
    "metadata_table":"CM4",
    "annotation_variable":"结束日期",
    "metadata_variable":"CMENDAT",
    "SDTM_Domain":"CM",
    "SDTM_Variable":"CMENDTC"
  },
  {
    "annotation_table":"后续抗肿瘤放疗",
    "metadata_table":"PR4",
    "annotation_variable":"放疗部位",
    "metadata_variable":"PRLOC",
    "SDTM_Domain":"PR",
    "SDTM_Variable":"PRLOC"
  },
  {
    "annotation_table":"后续抗肿瘤放疗",
    "metadata_table":"PR4",
    "annotation_variable":"其他部位，请说明",
    "metadata_variable":"PRLOCOTH",
    "SDTM_Domain":"PR",
    "SDTM_Variable":"QVAL when QNAM=PRLOCOTH"
  },
  {
    "annotation_table":"后续抗肿瘤放疗",
    "metadata_table":"PR4",
    "annotation_variable":"放疗方式<optional>",
    "metadata_variable":"PRMETH",
    "SDTM_Domain":"PR",
    "SDTM_Variable":"PRSCAT"
  },
  {
    "annotation_table":"后续抗肿瘤放疗",
    "metadata_table":"PR4",
    "annotation_variable":"放疗总剂量",
    "metadata_variable":"PRDSTXT",
    "SDTM_Domain":"PR",
    "SDTM_Variable":"PRDOSE\/PRDOSTXT"
  },
  {
    "annotation_table":"后续抗肿瘤放疗",
    "metadata_table":"PR4",
    "annotation_variable":"放疗总剂量单位",
    "metadata_variable":"PRDOSU",
    "SDTM_Domain":"PR",
    "SDTM_Variable":"PRDOSU"
  },
  {
    "annotation_table":"后续抗肿瘤放疗",
    "metadata_table":"PR4",
    "annotation_variable":"其他，请说明",
    "metadata_variable":"PRDOSUO",
    "SDTM_Domain":"PR",
    "SDTM_Variable":"PRDOSU"
  },
  {
    "annotation_table":"后续抗肿瘤放疗",
    "metadata_table":"PR4",
    "annotation_variable":"放疗目的",
    "metadata_variable":"PRPUR",
    "SDTM_Domain":"PR",
    "SDTM_Variable":"QVAL when QNAM=PRPUR"
  },
  {
    "annotation_table":"后续抗肿瘤放疗",
    "metadata_table":"PR4",
    "annotation_variable":"其他目的，请说明",
    "metadata_variable":"PRPUROTH",
    "SDTM_Domain":"PR",
    "SDTM_Variable":"QVAL when QNAM=PRPUROTH"
  },
  {
    "annotation_table":"后续抗肿瘤放疗",
    "metadata_table":"PR4",
    "annotation_variable":"开始日期",
    "metadata_variable":"PRSTDAT",
    "SDTM_Domain":"PR",
    "SDTM_Variable":"PRSTDTC"
  },
  {
    "annotation_table":"后续抗肿瘤放疗",
    "metadata_table":"PR4",
    "annotation_variable":"是否持续？",
    "metadata_variable":"PRONGO",
    "SDTM_Domain":"PR",
    "SDTM_Variable":"QVAL when QNAM=PRONGO"
  },
  {
    "annotation_table":"后续抗肿瘤放疗",
    "metadata_table":"PR4",
    "annotation_variable":"结束日期",
    "metadata_variable":"PRENDAT",
    "SDTM_Domain":"PR",
    "SDTM_Variable":"PRENDTC"
  },
  {
    "annotation_table":"后续抗肿瘤手术治疗",
    "metadata_table":"PR5",
    "annotation_variable":"手术名称",
    "metadata_variable":"PRTRT",
    "SDTM_Domain":"PR",
    "SDTM_Variable":"PRTRT"
  },
  {
    "annotation_table":"后续抗肿瘤手术治疗",
    "metadata_table":"PR5",
    "annotation_variable":"治疗目的",
    "metadata_variable":"PR5PUR",
    "SDTM_Domain":"PR",
    "SDTM_Variable":"QVAL when QNAM=PRPUR"
  },
  {
    "annotation_table":"后续抗肿瘤手术治疗",
    "metadata_table":"PR5",
    "annotation_variable":"其他治疗目的，请描述",
    "metadata_variable":"PRPUROTH",
    "SDTM_Domain":"PR",
    "SDTM_Variable":"QVAL when QNAM=PRPUROTH"
  },
  {
    "annotation_table":"后续抗肿瘤手术治疗",
    "metadata_table":"PR5",
    "annotation_variable":"手术日期",
    "metadata_variable":"PRSTDAT",
    "SDTM_Domain":"PR",
    "SDTM_Variable":"PRSTDTC"
  },
  {
    "annotation_table":"后续抗肿瘤其他治疗",
    "metadata_table":"PR6",
    "annotation_variable":"治疗方案",
    "metadata_variable":"PRTRT",
    "SDTM_Domain":"PR",
    "SDTM_Variable":"PRTRT"
  },
  {
    "annotation_table":"后续抗肿瘤其他治疗",
    "metadata_table":"PR6",
    "annotation_variable":"开始日期",
    "metadata_variable":"PRSTDAT",
    "SDTM_Domain":"PR",
    "SDTM_Variable":"PRSTDTC"
  },
  {
    "annotation_table":"后续抗肿瘤其他治疗",
    "metadata_table":"PR6",
    "annotation_variable":"是否持续？",
    "metadata_variable":"PRONGO",
    "SDTM_Domain":"PR",
    "SDTM_Variable":"QVAL when QNAM=PRONGO"
  },
  {
    "annotation_table":"后续抗肿瘤其他治疗",
    "metadata_table":"PR6",
    "annotation_variable":"结束日期",
    "metadata_variable":"PRENDAT",
    "SDTM_Domain":"PR",
    "SDTM_Variable":"PRENDTC"
  },
  {
    "annotation_table":"肿瘤组织样本收集",
    "metadata_table":"TSC",
    "annotation_variable":"是否收集肿瘤组织样本？",
    "metadata_variable":"TSCPERF",
    "SDTM_Domain":"MI",
    "SDTM_Variable":"MISTAT=未查 if [RAW]TSCPERF=否"
  },
  {
    "annotation_table":"肿瘤组织样本收集",
    "metadata_table":"TSC",
    "annotation_variable":"样本类型",
    "metadata_variable":"TSCTYP",
    "SDTM_Domain":"MI",
    "SDTM_Variable":"MISPEC"
  },
  {
    "annotation_table":"肿瘤组织样本收集",
    "metadata_table":"TSC",
    "annotation_variable":"样本采集日期",
    "metadata_variable":"TSCDAT",
    "SDTM_Domain":"MI",
    "SDTM_Variable":"MIDTC"
  },
  {
    "annotation_table":"感染源标本采集和培养-基线期（本地实验室）",
    "metadata_table":"INB",
    "annotation_variable":"是否进行感染源标本采集？",
    "metadata_variable":"INPERF",
    "SDTM_Domain":"MB",
    "SDTM_Variable":"MBSTAT=未查 if [RAW]INPERF = 否 "
  },
  {
    "annotation_table":"感染源标本采集和培养-基线期（本地实验室）",
    "metadata_table":"INB",
    "annotation_variable":"未进行感染源标本采集原因",
    "metadata_variable":"INREAS",
    "SDTM_Domain":"MB",
    "SDTM_Variable":"MBREASND"
  },
  {
    "annotation_table":"感染源标本采集和培养-基线期（本地实验室）",
    "metadata_table":"INB",
    "annotation_variable":"采样日期",
    "metadata_variable":"INDAT",
    "SDTM_Domain":"MB|MS",
    "SDTM_Variable":"MBDTC|MSDTC"
  },
  {
    "annotation_table":"感染源标本采集和培养-基线期（本地实验室）",
    "metadata_table":"INB",
    "annotation_variable":"采样时间（24小时制）",
    "metadata_variable":"INTIM",
    "SDTM_Domain":"MB|MS",
    "SDTM_Variable":"MBDTC|MSDTC"
  },
  {
    "annotation_table":"感染源标本采集和培养-基线期（本地实验室）",
    "metadata_table":"INB",
    "annotation_variable":"标本类型",
    "metadata_variable":"INSPTYP",
    "SDTM_Domain":"MB",
    "SDTM_Variable":"MBSPEC"
  },
  {
    "annotation_table":"感染源标本采集和培养-基线期（本地实验室）",
    "metadata_table":"INB",
    "annotation_variable":"其他标本类型",
    "metadata_variable":"INSPOTH",
    "SDTM_Domain":"MB",
    "SDTM_Variable":"QVAL when QNAM=MBSPEOTH"
  },
  {
    "annotation_table":"感染源标本采集和培养-基线期（本地实验室）",
