[
  {
    "chunk_id":"SDTM_SPEC::STUDYID",
    "chunk_text":"Variable: STUDYID\nLabel: 研究标识符\nDomain: AE\n域描述: 不良事件域 - 记录受试者在研究期间发生的不良事件信息",
    "metadata":"{\"variable\": \"STUDYID\", \"label\": \"研究标识符\", \"core\": \"必需\", \"domain\": \"AE\", \"language\": \"zh\", \"type\": \"sdtm_spec_field\", \"confidence_default\": 0.7, \"metadata_variable\": \"STUDYID\", \"source\": \"sdtm_spec_v3.2_temp\"}",
    "variable":"STUDYID",
    "label":"研究标识符",
    "core":"必需",
    "domain":"AE",
    "metadata_variable":"STUDYID",
    "language":"zh",
    "confidence_default":0.7,
    "source":"sdtm_spec_v3.2_temp",
    "keywords":null,
    "common_tables":null,
    "var_description":null
  },
  {
    "chunk_id":"SDTM_SPEC::DOMAIN",
    "chunk_text":"Variable: DOMAIN\nLabel: 域名缩写\nDomain: AE\n域描述: 不良事件域 - 记录受试者在研究期间发生的不良事件信息",
    "metadata":"{\"variable\": \"DOMAIN\", \"label\": \"域名缩写\", \"core\": \"必需\", \"domain\": \"AE\", \"language\": \"zh\", \"type\": \"sdtm_spec_field\", \"confidence_default\": 0.7, \"metadata_variable\": \"DOMAIN\", \"source\": \"sdtm_spec_v3.2_temp\"}",
    "variable":"DOMAIN",
    "label":"域名缩写",
    "core":"必需",
    "domain":"AE",
    "metadata_variable":"DOMAIN",
    "language":"zh",
    "confidence_default":0.7,
    "source":"sdtm_spec_v3.2_temp",
    "keywords":null,
    "common_tables":null,
    "var_description":null
  },
  {
    "chunk_id":"SDTM_SPEC::USUBJID",
    "chunk_text":"Variable: USUBJID\nLabel: 受试者唯一标识符\nDomain: AE\n域描述: 不良事件域 - 记录受试者在研究期间发生的不良事件信息",
    "metadata":"{\"variable\": \"USUBJID\", \"label\": \"受试者唯一标识符\", \"core\": \"必需\", \"domain\": \"AE\", \"language\": \"zh\", \"type\": \"sdtm_spec_field\", \"confidence_default\": 0.7, \"metadata_variable\": \"USUBJID\", \"source\": \"sdtm_spec_v3.2_temp\"}",
    "variable":"USUBJID",
    "label":"受试者唯一标识符",
    "core":"必需",
    "domain":"AE",
    "metadata_variable":"USUBJID",
    "language":"zh",
    "confidence_default":0.7,
    "source":"sdtm_spec_v3.2_temp",
    "keywords":null,
    "common_tables":null,
    "var_description":null
  },
  {
    "chunk_id":"SDTM_SPEC::AESEQ",
    "chunk_text":"Variable: AESEQ\nLabel: 序号\nDomain: AE\n域描述: 不良事件域 - 记录受试者在研究期间发生的不良事件信息",
    "metadata":"{\"variable\": \"AESEQ\", \"label\": \"序号\", \"core\": \"必需\", \"domain\": \"AE\", \"language\": \"zh\", \"type\": \"sdtm_spec_field\", \"confidence_default\": 0.7, \"metadata_variable\": \"AESEQ\", \"source\": \"sdtm_spec_v3.2_temp\"}",
    "variable":"AESEQ",
    "label":"序号",
    "core":"必需",
    "domain":"AE",
    "metadata_variable":"AESEQ",
    "language":"zh",
    "confidence_default":0.7,
    "source":"sdtm_spec_v3.2_temp",
    "keywords":null,
    "common_tables":null,
    "var_description":null
  },
  {
    "chunk_id":"SDTM_SPEC::AEGRPID",
    "chunk_text":"Variable: AEGRPID\nLabel: 组合ID\nDomain: AE\n域描述: 不良事件域 - 记录受试者在研究期间发生的不良事件信息",
    "metadata":"{\"variable\": \"AEGRPID\", \"label\": \"组合ID\", \"core\": \"可有\", \"domain\": \"AE\", \"language\": \"zh\", \"type\": \"sdtm_spec_field\", \"confidence_default\": 0.7, \"metadata_variable\": \"AEGRPID\", \"source\": \"sdtm_spec_v3.2_temp\"}",
    "variable":"AEGRPID",
    "label":"组合ID",
    "core":"可有",
    "domain":"AE",
    "metadata_variable":"AEGRPID",
    "language":"zh",
    "confidence_default":0.7,
    "source":"sdtm_spec_v3.2_temp",
    "keywords":null,
    "common_tables":null,
    "var_description":null
  },
  {
    "chunk_id":"SDTM_SPEC::AEREFID",
    "chunk_text":"Variable: AEREFID\nLabel: 参考ID\nDomain: AE\n域描述: 不良事件域 - 记录受试者在研究期间发生的不良事件信息",
    "metadata":"{\"variable\": \"AEREFID\", \"label\": \"参考ID\", \"core\": \"可有\", \"domain\": \"AE\", \"language\": \"zh\", \"type\": \"sdtm_spec_field\", \"confidence_default\": 0.7, \"metadata_variable\": \"AEREFID\", \"source\": \"sdtm_spec_v3.2_temp\"}",
    "variable":"AEREFID",
    "label":"参考ID",
    "core":"可有",
    "domain":"AE",
    "metadata_variable":"AEREFID",
    "language":"zh",
    "confidence_default":0.7,
    "source":"sdtm_spec_v3.2_temp",
    "keywords":null,
    "common_tables":null,
    "var_description":null
  },
  {
    "chunk_id":"SDTM_SPEC::AESPID",
    "chunk_text":"Variable: AESPID\nLabel: 自定义标识符\nDomain: AE\n域描述: 不良事件域 - 记录受试者在研究期间发生的不良事件信息",
    "metadata":"{\"variable\": \"AESPID\", \"label\": \"自定义标识符\", \"core\": \"可有\", \"domain\": \"AE\", \"language\": \"zh\", \"type\": \"sdtm_spec_field\", \"confidence_default\": 0.7, \"metadata_variable\": \"AESPID\", \"source\": \"sdtm_spec_v3.2_temp\"}",
    "variable":"AESPID",
    "label":"自定义标识符",
    "core":"可有",
    "domain":"AE",
    "metadata_variable":"AESPID",
    "language":"zh",
    "confidence_default":0.7,
    "source":"sdtm_spec_v3.2_temp",
    "keywords":null,
    "common_tables":null,
    "var_description":null
  },
  {
    "chunk_id":"SDTM_SPEC::AETERM",
    "chunk_text":"Variable: AETERM\nLabel: 不良事件报告名称\nDomain: AE\n域描述: 不良事件域 - 记录受试者在研究期间发生的不良事件信息\n变量描述: 不良事件的报告名称（原始术语）\n关键词: 不良事件名称, 不良事件, AE名称, 事件名称\n常见表名: 不良事件, AE",
    "metadata":"{\"variable\": \"AETERM\", \"label\": \"不良事件报告名称\", \"core\": \"必需\", \"domain\": \"AE\", \"language\": \"zh\", \"type\": \"sdtm_spec_field\", \"confidence_default\": 0.7, \"metadata_variable\": \"AETERM\", \"source\": \"sdtm_spec_v3.2_temp\"}",
    "variable":"AETERM",
    "label":"不良事件报告名称",
    "core":"必需",
    "domain":"AE",
    "metadata_variable":"AETERM",
    "language":"zh",
    "confidence_default":0.7,
    "source":"sdtm_spec_v3.2_temp",
    "keywords":[
      "不良事件名称",
      "不良事件",
      "AE名称",
      "事件名称"
    ],
    "common_tables":[
      "不良事件",
      "AE"
    ],
    "var_description":"不良事件的报告名称（原始术语）"
  },
  {
    "chunk_id":"SDTM_SPEC::AEMODIFY",
    "chunk_text":"Variable: AEMODIFY\nLabel: 修正词\nDomain: AE\n域描述: 不良事件域 - 记录受试者在研究期间发生的不良事件信息",
    "metadata":"{\"variable\": \"AEMODIFY\", \"label\": \"修正词\", \"core\": \"可有\", \"domain\": \"AE\", \"language\": \"zh\", \"type\": \"sdtm_spec_field\", \"confidence_default\": 0.7, \"metadata_variable\": \"AEMODIFY\", \"source\": \"sdtm_spec_v3.2_temp\"}",
    "variable":"AEMODIFY",
    "label":"修正词",
    "core":"可有",
    "domain":"AE",
    "metadata_variable":"AEMODIFY",
    "language":"zh",
    "confidence_default":0.7,
    "source":"sdtm_spec_v3.2_temp",
    "keywords":null,
    "common_tables":null,
    "var_description":null
  },
  {
    "chunk_id":"SDTM_SPEC::AELLT",
    "chunk_text":"Variable: AELLT\nLabel: 低位语\nDomain: AE\n域描述: 不良事件域 - 记录受试者在研究期间发生的不良事件信息",
    "metadata":"{\"variable\": \"AELLT\", \"label\": \"低位语\", \"core\": \"期望\", \"domain\": \"AE\", \"language\": \"zh\", \"type\": \"sdtm_spec_field\", \"confidence_default\": 0.7, \"metadata_variable\": \"AELLT\", \"source\": \"sdtm_spec_v3.2_temp\"}",
    "variable":"AELLT",
    "label":"低位语",
    "core":"期望",
    "domain":"AE",
    "metadata_variable":"AELLT",
    "language":"zh",
    "confidence_default":0.7,
    "source":"sdtm_spec_v3.2_temp",
    "keywords":null,
    "common_tables":null,
    "var_description":null
  },
  {
    "chunk_id":"SDTM_SPEC::AELLTCD",
    "chunk_text":"Variable: AELLTCD\nLabel: 低位语编码\nDomain: AE\n域描述: 不良事件域 - 记录受试者在研究期间发生的不良事件信息",
    "metadata":"{\"variable\": \"AELLTCD\", \"label\": \"低位语编码\", \"core\": \"期望\", \"domain\": \"AE\", \"language\": \"zh\", \"type\": \"sdtm_spec_field\", \"confidence_default\": 0.7, \"metadata_variable\": \"AELLTCD\", \"source\": \"sdtm_spec_v3.2_temp\"}",
    "variable":"AELLTCD",
    "label":"低位语编码",
    "core":"期望",
    "domain":"AE",
    "metadata_variable":"AELLTCD",
    "language":"zh",
    "confidence_default":0.7,
    "source":"sdtm_spec_v3.2_temp",
    "keywords":null,
    "common_tables":null,
    "var_description":null
  },
  {
    "chunk_id":"SDTM_SPEC::AEDECOD",
    "chunk_text":"Variable: AEDECOD\nLabel: 标准化名称\nDomain: AE\n域描述: 不良事件域 - 记录受试者在研究期间发生的不良事件信息",
    "metadata":"{\"variable\": \"AEDECOD\", \"label\": \"标准化名称\", \"core\": \"必需\", \"domain\": \"AE\", \"language\": \"zh\", \"type\": \"sdtm_spec_field\", \"confidence_default\": 0.7, \"metadata_variable\": \"AEDECOD\", \"source\": \"sdtm_spec_v3.2_temp\"}",
    "variable":"AEDECOD",
    "label":"标准化名称",
    "core":"必需",
    "domain":"AE",
    "metadata_variable":"AEDECOD",
    "language":"zh",
    "confidence_default":0.7,
    "source":"sdtm_spec_v3.2_temp",
    "keywords":null,
    "common_tables":null,
    "var_description":null
  },
  {
    "chunk_id":"SDTM_SPEC::AEPTCD",
    "chunk_text":"Variable: AEPTCD\nLabel: 首选语编码\nDomain: AE\n域描述: 不良事件域 - 记录受试者在研究期间发生的不良事件信息",
    "metadata":"{\"variable\": \"AEPTCD\", \"label\": \"首选语编码\", \"core\": \"期望\", \"domain\": \"AE\", \"language\": \"zh\", \"type\": \"sdtm_spec_field\", \"confidence_default\": 0.7, \"metadata_variable\": \"AEPTCD\", \"source\": \"sdtm_spec_v3.2_temp\"}",
    "variable":"AEPTCD",
    "label":"首选语编码",
    "core":"期望",
    "domain":"AE",
    "metadata_variable":"AEPTCD",
    "language":"zh",
    "confidence_default":0.7,
    "source":"sdtm_spec_v3.2_temp",
    "keywords":null,
    "common_tables":null,
    "var_description":null
  },
  {
    "chunk_id":"SDTM_SPEC::AEHLT",
    "chunk_text":"Variable: AEHLT\nLabel: 高位语\nDomain: AE\n域描述: 不良事件域 - 记录受试者在研究期间发生的不良事件信息",
    "metadata":"{\"variable\": \"AEHLT\", \"label\": \"高位语\", \"core\": \"期望\", \"domain\": \"AE\", \"language\": \"zh\", \"type\": \"sdtm_spec_field\", \"confidence_default\": 0.7, \"metadata_variable\": \"AEHLT\", \"source\": \"sdtm_spec_v3.2_temp\"}",
    "variable":"AEHLT",
    "label":"高位语",
    "core":"期望",
    "domain":"AE",
    "metadata_variable":"AEHLT",
    "language":"zh",
    "confidence_default":0.7,
    "source":"sdtm_spec_v3.2_temp",
    "keywords":null,
    "common_tables":null,
    "var_description":null
  },
  {
    "chunk_id":"SDTM_SPEC::AEHLTCD",
    "chunk_text":"Variable: AEHLTCD\nLabel: 高位语编码\nDomain: AE\n域描述: 不良事件域 - 记录受试者在研究期间发生的不良事件信息",
    "metadata":"{\"variable\": \"AEHLTCD\", \"label\": \"高位语编码\", \"core\": \"期望\", \"domain\": \"AE\", \"language\": \"zh\", \"type\": \"sdtm_spec_field\", \"confidence_default\": 0.7, \"metadata_variable\": \"AEHLTCD\", \"source\": \"sdtm_spec_v3.2_temp\"}",
    "variable":"AEHLTCD",
    "label":"高位语编码",
    "core":"期望",
    "domain":"AE",
    "metadata_variable":"AEHLTCD",
    "language":"zh",
    "confidence_default":0.7,
    "source":"sdtm_spec_v3.2_temp",
    "keywords":null,
    "common_tables":null,
    "var_description":null
  },
  {
    "chunk_id":"SDTM_SPEC::AEHLGT",
    "chunk_text":"Variable: AEHLGT\nLabel: 高位组语\nDomain: AE\n域描述: 不良事件域 - 记录受试者在研究期间发生的不良事件信息",
    "metadata":"{\"variable\": \"AEHLGT\", \"label\": \"高位组语\", \"core\": \"期望\", \"domain\": \"AE\", \"language\": \"zh\", \"type\": \"sdtm_spec_field\", \"confidence_default\": 0.7, \"metadata_variable\": \"AEHLGT\", \"source\": \"sdtm_spec_v3.2_temp\"}",
    "variable":"AEHLGT",
    "label":"高位组语",
    "core":"期望",
    "domain":"AE",
    "metadata_variable":"AEHLGT",
    "language":"zh",
    "confidence_default":0.7,
    "source":"sdtm_spec_v3.2_temp",
    "keywords":null,
    "common_tables":null,
    "var_description":null
  },
  {
    "chunk_id":"SDTM_SPEC::AEHLGTCD",
    "chunk_text":"Variable: AEHLGTCD\nLabel: 高位组语编码\nDomain: AE\n域描述: 不良事件域 - 记录受试者在研究期间发生的不良事件信息",
    "metadata":"{\"variable\": \"AEHLGTCD\", \"label\": \"高位组语编码\", \"core\": \"期望\", \"domain\": \"AE\", \"language\": \"zh\", \"type\": \"sdtm_spec_field\", \"confidence_default\": 0.7, \"metadata_variable\": \"AEHLGTCD\", \"source\": \"sdtm_spec_v3.2_temp\"}",
    "variable":"AEHLGTCD",
    "label":"高位组语编码",
    "core":"期望",
    "domain":"AE",
    "metadata_variable":"AEHLGTCD",
    "language":"zh",
    "confidence_default":0.7,
    "source":"sdtm_spec_v3.2_temp",
    "keywords":null,
    "common_tables":null,
    "var_description":null
  },
  {
    "chunk_id":"SDTM_SPEC::AECAT",
    "chunk_text":"Variable: AECAT\nLabel: 类别\nDomain: AE\n域描述: 不良事件域 - 记录受试者在研究期间发生的不良事件信息",
    "metadata":"{\"variable\": \"AECAT\", \"label\": \"类别\", \"core\": \"可有\", \"domain\": \"AE\", \"language\": \"zh\", \"type\": \"sdtm_spec_field\", \"confidence_default\": 0.7, \"metadata_variable\": \"AECAT\", \"source\": \"sdtm_spec_v3.2_temp\"}",
    "variable":"AECAT",
    "label":"类别",
    "core":"可有",
    "domain":"AE",
    "metadata_variable":"AECAT",
    "language":"zh",
    "confidence_default":0.7,
    "source":"sdtm_spec_v3.2_temp",
    "keywords":null,
    "common_tables":null,
    "var_description":null
  },
  {
    "chunk_id":"SDTM_SPEC::AESCAT",
    "chunk_text":"Variable: AESCAT\nLabel: 子类\nDomain: AE\n域描述: 不良事件域 - 记录受试者在研究期间发生的不良事件信息",
    "metadata":"{\"variable\": \"AESCAT\", \"label\": \"子类\", \"core\": \"可有\", \"domain\": \"AE\", \"language\": \"zh\", \"type\": \"sdtm_spec_field\", \"confidence_default\": 0.7, \"metadata_variable\": \"AESCAT\", \"source\": \"sdtm_spec_v3.2_temp\"}",
    "variable":"AESCAT",
    "label":"子类",
    "core":"可有",
    "domain":"AE",
    "metadata_variable":"AESCAT",
    "language":"zh",
    "confidence_default":0.7,
    "source":"sdtm_spec_v3.2_temp",
    "keywords":null,
    "common_tables":null,
    "var_description":null
  },
  {
    "chunk_id":"SDTM_SPEC::AEPRESP",
    "chunk_text":"Variable: AEPRESP\nLabel: 预设\nDomain: AE\n域描述: 不良事件域 - 记录受试者在研究期间发生的不良事件信息",
    "metadata":"{\"variable\": \"AEPRESP\", \"label\": \"预设\", \"core\": \"可有\", \"domain\": \"AE\", \"language\": \"zh\", \"type\": \"sdtm_spec_field\", \"confidence_default\": 0.7, \"metadata_variable\": \"AEPRESP\", \"source\": \"sdtm_spec_v3.2_temp\"}",
    "variable":"AEPRESP",
    "label":"预设",
    "core":"可有",
    "domain":"AE",
    "metadata_variable":"AEPRESP",
    "language":"zh",
    "confidence_default":0.7,
    "source":"sdtm_spec_v3.2_temp",
    "keywords":null,
    "common_tables":null,
    "var_description":null
  },
  {
    "chunk_id":"SDTM_SPEC::AEBODSYS",
    "chunk_text":"Variable: AEBODSYS\nLabel: 系统器官分类\nDomain: AE\n域描述: 不良事件域 - 记录受试者在研究期间发生的不良事件信息",
    "metadata":"{\"variable\": \"AEBODSYS\", \"label\": \"系统器官分类\", \"core\": \"期望\", \"domain\": \"AE\", \"language\": \"zh\", \"type\": \"sdtm_spec_field\", \"confidence_default\": 0.7, \"metadata_variable\": \"AEBODSYS\", \"source\": \"sdtm_spec_v3.2_temp\"}",
    "variable":"AEBODSYS",
    "label":"系统器官分类",
    "core":"期望",
    "domain":"AE",
    "metadata_variable":"AEBODSYS",
    "language":"zh",
    "confidence_default":0.7,
    "source":"sdtm_spec_v3.2_temp",
    "keywords":null,
    "common_tables":null,
    "var_description":null
  },
  {
    "chunk_id":"SDTM_SPEC::AEBDSYCD",
    "chunk_text":"Variable: AEBDSYCD\nLabel: 系统器官分类编码\nDomain: AE\n域描述: 不良事件域 - 记录受试者在研究期间发生的不良事件信息",
    "metadata":"{\"variable\": \"AEBDSYCD\", \"label\": \"系统器官分类编码\", \"core\": \"期望\", \"domain\": \"AE\", \"language\": \"zh\", \"type\": \"sdtm_spec_field\", \"confidence_default\": 0.7, \"metadata_variable\": \"AEBDSYCD\", \"source\": \"sdtm_spec_v3.2_temp\"}",
    "variable":"AEBDSYCD",
    "label":"系统器官分类编码",
    "core":"期望",
    "domain":"AE",
    "metadata_variable":"AEBDSYCD",
    "language":"zh",
    "confidence_default":0.7,
    "source":"sdtm_spec_v3.2_temp",
    "keywords":null,
    "common_tables":null,
    "var_description":null
  },
  {
    "chunk_id":"SDTM_SPEC::AESOC",
    "chunk_text":"Variable: AESOC\nLabel: 主系统器官分类\nDomain: AE\n域描述: 不良事件域 - 记录受试者在研究期间发生的不良事件信息",
    "metadata":"{\"variable\": \"AESOC\", \"label\": \"主系统器官分类\", \"core\": \"期望\", \"domain\": \"AE\", \"language\": \"zh\", \"type\": \"sdtm_spec_field\", \"confidence_default\": 0.7, \"metadata_variable\": \"AESOC\", \"source\": \"sdtm_spec_v3.2_temp\"}",
    "variable":"AESOC",
    "label":"主系统器官分类",
    "core":"期望",
    "domain":"AE",
    "metadata_variable":"AESOC",
    "language":"zh",
    "confidence_default":0.7,
    "source":"sdtm_spec_v3.2_temp",
    "keywords":null,
    "common_tables":null,
    "var_description":null
  },
  {
    "chunk_id":"SDTM_SPEC::AESOCCD",
    "chunk_text":"Variable: AESOCCD\nLabel: 主系统器官分类编码\nDomain: AE\n域描述: 不良事件域 - 记录受试者在研究期间发生的不良事件信息",
    "metadata":"{\"variable\": \"AESOCCD\", \"label\": \"主系统器官分类编码\", \"core\": \"期望\", \"domain\": \"AE\", \"language\": \"zh\", \"type\": \"sdtm_spec_field\", \"confidence_default\": 0.7, \"metadata_variable\": \"AESOCCD\", \"source\": \"sdtm_spec_v3.2_temp\"}",
    "variable":"AESOCCD",
    "label":"主系统器官分类编码",
    "core":"期望",
    "domain":"AE",
    "metadata_variable":"AESOCCD",
    "language":"zh",
    "confidence_default":0.7,
    "source":"sdtm_spec_v3.2_temp",
    "keywords":null,
    "common_tables":null,
    "var_description":null
  },
  {
    "chunk_id":"SDTM_SPEC::AELOC",
    "chunk_text":"Variable: AELOC\nLabel: 部位\nDomain: AE\n域描述: 不良事件域 - 记录受试者在研究期间发生的不良事件信息",
    "metadata":"{\"variable\": \"AELOC\", \"label\": \"部位\", \"core\": \"可有\", \"domain\": \"AE\", \"language\": \"zh\", \"type\": \"sdtm_spec_field\", \"confidence_default\": 0.7, \"metadata_variable\": \"AELOC\", \"source\": \"sdtm_spec_v3.2_temp\"}",
    "variable":"AELOC",
    "label":"部位",
    "core":"可有",
    "domain":"AE",
    "metadata_variable":"AELOC",
    "language":"zh",
    "confidence_default":0.7,
    "source":"sdtm_spec_v3.2_temp",
    "keywords":null,
    "common_tables":null,
    "var_description":null
  },
  {
    "chunk_id":"SDTM_SPEC::AESEV",
    "chunk_text":"Variable: AESEV\nLabel: 严重程度\nDomain: AE\n域描述: 不良事件域 - 记录受试者在研究期间发生的不良事件信息\n变量描述: 不良事件的严重程度等级\n关键词: 严重程度, 等级, 分级, CTCAE\n常见表名: 不良事件, AE, 严重程度明细",
    "metadata":"{\"variable\": \"AESEV\", \"label\": \"严重程度\", \"core\": \"可有\", \"domain\": \"AE\", \"language\": \"zh\", \"type\": \"sdtm_spec_field\", \"confidence_default\": 0.7, \"metadata_variable\": \"AESEV\", \"source\": \"sdtm_spec_v3.2_temp\"}",
    "variable":"AESEV",
    "label":"严重程度",
    "core":"可有",
    "domain":"AE",
    "metadata_variable":"AESEV",
    "language":"zh",
    "confidence_default":0.7,
    "source":"sdtm_spec_v3.2_temp",
    "keywords":[
      "严重程度",
      "等级",
      "分级",
      "CTCAE"
    ],
    "common_tables":[
      "不良事件",
      "AE",
      "严重程度明细"
    ],
    "var_description":"不良事件的严重程度等级"
  },
  {
    "chunk_id":"SDTM_SPEC::AESER",
    "chunk_text":"Variable: AESER\nLabel: 严重事件\nDomain: AE\n域描述: 不良事件域 - 记录受试者在研究期间发生的不良事件信息\n变量描述: 是否为严重不良事件的标识\n关键词: 严重不良事件, SAE, 是否严重, 严重性\n常见表名: 不良事件, AE",
    "metadata":"{\"variable\": \"AESER\", \"label\": \"严重事件\", \"core\": \"期望\", \"domain\": \"AE\", \"language\": \"zh\", \"type\": \"sdtm_spec_field\", \"confidence_default\": 0.7, \"metadata_variable\": \"AESER\", \"source\": \"sdtm_spec_v3.2_temp\"}",
    "variable":"AESER",
    "label":"严重事件",
    "core":"期望",
    "domain":"AE",
    "metadata_variable":"AESER",
    "language":"zh",
    "confidence_default":0.7,
    "source":"sdtm_spec_v3.2_temp",
    "keywords":[
      "严重不良事件",
      "SAE",
      "是否严重",
      "严重性"
    ],
    "common_tables":[
      "不良事件",
      "AE"
    ],
    "var_description":"是否为严重不良事件的标识"
  },
  {
    "chunk_id":"SDTM_SPEC::AEACN",
    "chunk_text":"Variable: AEACN\nLabel: 对研究治疗采取的措施\nDomain: AE\n域描述: 不良事件域 - 记录受试者在研究期间发生的不良事件信息\n变量描述: 针对不良事件对研究药物采取的措施\n关键词: 采取的措施, 处理措施, 治疗措施, 对药物采取的措施\n常见表名: 不良事件, AE",
    "metadata":"{\"variable\": \"AEACN\", \"label\": \"对研究治疗采取的措施\", \"core\": \"期望\", \"domain\": \"AE\", \"language\": \"zh\", \"type\": \"sdtm_spec_field\", \"confidence_default\": 0.7, \"metadata_variable\": \"AEACN\", \"source\": \"sdtm_spec_v3.2_temp\"}",
    "variable":"AEACN",
    "label":"对研究治疗采取的措施",
    "core":"期望",
    "domain":"AE",
    "metadata_variable":"AEACN",
    "language":"zh",
    "confidence_default":0.7,
    "source":"sdtm_spec_v3.2_temp",
    "keywords":[
      "采取的措施",
      "处理措施",
      "治疗措施",
      "对药物采取的措施"
    ],
    "common_tables":[
      "不良事件",
      "AE"
    ],
    "var_description":"针对不良事件对研究药物采取的措施"
  },
  {
    "chunk_id":"SDTM_SPEC::AEACNOTH",
    "chunk_text":"Variable: AEACNOTH\nLabel: 采取的其他措施\nDomain: AE\n域描述: 不良事件域 - 记录受试者在研究期间发生的不良事件信息",
    "metadata":"{\"variable\": \"AEACNOTH\", \"label\": \"采取的其他措施\", \"core\": \"可有\", \"domain\": \"AE\", \"language\": \"zh\", \"type\": \"sdtm_spec_field\", \"confidence_default\": 0.7, \"metadata_variable\": \"AEACNOTH\", \"source\": \"sdtm_spec_v3.2_temp\"}",
    "variable":"AEACNOTH",
    "label":"采取的其他措施",
    "core":"可有",
    "domain":"AE",
    "metadata_variable":"AEACNOTH",
    "language":"zh",
    "confidence_default":0.7,
    "source":"sdtm_spec_v3.2_temp",
    "keywords":null,
    "common_tables":null,
    "var_description":null
  },
  {
    "chunk_id":"SDTM_SPEC::AEREL",
    "chunk_text":"Variable: AEREL\nLabel: 相关性\nDomain: AE\n域描述: 不良事件域 - 记录受试者在研究期间发生的不良事件信息\n变量描述: 不良事件与研究药物的因果关系\n关键词: 与研究药物关系, 因果关系, 相关性, 关联性\n常见表名: 不良事件, AE",
    "metadata":"{\"variable\": \"AEREL\", \"label\": \"相关性\", \"core\": \"期望\", \"domain\": \"AE\", \"language\": \"zh\", \"type\": \"sdtm_spec_field\", \"confidence_default\": 0.7, \"metadata_variable\": \"AEREL\", \"source\": \"sdtm_spec_v3.2_temp\"}",
    "variable":"AEREL",
    "label":"相关性",
    "core":"期望",
    "domain":"AE",
    "metadata_variable":"AEREL",
    "language":"zh",
    "confidence_default":0.7,
    "source":"sdtm_spec_v3.2_temp",
    "keywords":[
      "与研究药物关系",
      "因果关系",
      "相关性",
      "关联性"
    ],
    "common_tables":[
      "不良事件",
      "AE"
    ],
    "var_description":"不良事件与研究药物的因果关系"
  },
  {
    "chunk_id":"SDTM_SPEC::AERELNST",
    "chunk_text":"Variable: AERELNST\nLabel: 与非研究治疗的相关性\nDomain: AE\n域描述: 不良事件域 - 记录受试者在研究期间发生的不良事件信息",
    "metadata":"{\"variable\": \"AERELNST\", \"label\": \"与非研究治疗的相关性\", \"core\": \"可有\", \"domain\": \"AE\", \"language\": \"zh\", \"type\": \"sdtm_spec_field\", \"confidence_default\": 0.7, \"metadata_variable\": \"AERELNST\", \"source\": \"sdtm_spec_v3.2_temp\"}",
    "variable":"AERELNST",
    "label":"与非研究治疗的相关性",
    "core":"可有",
    "domain":"AE",
    "metadata_variable":"AERELNST",
    "language":"zh",
    "confidence_default":0.7,
    "source":"sdtm_spec_v3.2_temp",
    "keywords":null,
    "common_tables":null,
    "var_description":null
  },
  {
    "chunk_id":"SDTM_SPEC::AEPATT",
    "chunk_text":"Variable: AEPATT\nLabel: 发生特点\nDomain: AE\n域描述: 不良事件域 - 记录受试者在研究期间发生的不良事件信息",
    "metadata":"{\"variable\": \"AEPATT\", \"label\": \"发生特点\", \"core\": \"可有\", \"domain\": \"AE\", \"language\": \"zh\", \"type\": \"sdtm_spec_field\", \"confidence_default\": 0.7, \"metadata_variable\": \"AEPATT\", \"source\": \"sdtm_spec_v3.2_temp\"}",
    "variable":"AEPATT",
    "label":"发生特点",
    "core":"可有",
    "domain":"AE",
    "metadata_variable":"AEPATT",
    "language":"zh",
    "confidence_default":0.7,
    "source":"sdtm_spec_v3.2_temp",
    "keywords":null,
    "common_tables":null,
    "var_description":null
  },
  {
    "chunk_id":"SDTM_SPEC::AEOUT",
    "chunk_text":"Variable: AEOUT\nLabel: 转归\nDomain: AE\n域描述: 不良事件域 - 记录受试者在研究期间发生的不良事件信息\n变量描述: 不良事件的转归\/结局\n关键词: 转归, 结局, 结果, 恢复情况\n常见表名: 不良事件, AE",
    "metadata":"{\"variable\": \"AEOUT\", \"label\": \"转归\", \"core\": \"可有\", \"domain\": \"AE\", \"language\": \"zh\", \"type\": \"sdtm_spec_field\", \"confidence_default\": 0.7, \"metadata_variable\": \"AEOUT\", \"source\": \"sdtm_spec_v3.2_temp\"}",
    "variable":"AEOUT",
    "label":"转归",
    "core":"可有",
    "domain":"AE",
    "metadata_variable":"AEOUT",
    "language":"zh",
    "confidence_default":0.7,
    "source":"sdtm_spec_v3.2_temp",
    "keywords":[
      "转归",
      "结局",
      "结果",
      "恢复情况"
    ],
    "common_tables":[
      "不良事件",
      "AE"
    ],
    "var_description":"不良事件的转归\/结局"
  },
  {
    "chunk_id":"SDTM_SPEC::AESCAN",
    "chunk_text":"Variable: AESCAN\nLabel: 涉及癌症\nDomain: AE\n域描述: 不良事件域 - 记录受试者在研究期间发生的不良事件信息",
    "metadata":"{\"variable\": \"AESCAN\", \"label\": \"涉及癌症\", \"core\": \"可有\", \"domain\": \"AE\", \"language\": \"zh\", \"type\": \"sdtm_spec_field\", \"confidence_default\": 0.7, \"metadata_variable\": \"AESCAN\", \"source\": \"sdtm_spec_v3.2_temp\"}",
    "variable":"AESCAN",
    "label":"涉及癌症",
    "core":"可有",
    "domain":"AE",
    "metadata_variable":"AESCAN",
    "language":"zh",
    "confidence_default":0.7,
    "source":"sdtm_spec_v3.2_temp",
    "keywords":null,
    "common_tables":null,
    "var_description":null
  },
  {
    "chunk_id":"SDTM_SPEC::AESCONG",
    "chunk_text":"Variable: AESCONG\nLabel: 后代先天异常或致畸\nDomain: AE\n域描述: 不良事件域 - 记录受试者在研究期间发生的不良事件信息",
    "metadata":"{\"variable\": \"AESCONG\", \"label\": \"后代先天异常或致畸\", \"core\": \"可有\", \"domain\": \"AE\", \"language\": \"zh\", \"type\": \"sdtm_spec_field\", \"confidence_default\": 0.7, \"metadata_variable\": \"AESCONG\", \"source\": \"sdtm_spec_v3.2_temp\"}",
    "variable":"AESCONG",
    "label":"后代先天异常或致畸",
    "core":"可有",
    "domain":"AE",
    "metadata_variable":"AESCONG",
    "language":"zh",
    "confidence_default":0.7,
    "source":"sdtm_spec_v3.2_temp",
    "keywords":null,
    "common_tables":null,
    "var_description":null
  },
  {
    "chunk_id":"SDTM_SPEC::AESDISAB",
    "chunk_text":"Variable: AESDISAB\nLabel: 导致永久或显著的残疾或功能障碍\nDomain: AE\n域描述: 不良事件域 - 记录受试者在研究期间发生的不良事件信息",
    "metadata":"{\"variable\": \"AESDISAB\", \"label\": \"导致永久或显著的残疾或功能障碍\", \"core\": \"可有\", \"domain\": \"AE\", \"language\": \"zh\", \"type\": \"sdtm_spec_field\", \"confidence_default\": 0.7, \"metadata_variable\": \"AESDISAB\", \"source\": \"sdtm_spec_v3.2_temp\"}",
    "variable":"AESDISAB",
    "label":"导致永久或显著的残疾或功能障碍",
    "core":"可有",
    "domain":"AE",
    "metadata_variable":"AESDISAB",
    "language":"zh",
    "confidence_default":0.7,
    "source":"sdtm_spec_v3.2_temp",
    "keywords":null,
    "common_tables":null,
    "var_description":null
  },
  {
    "chunk_id":"SDTM_SPEC::AESDTH",
    "chunk_text":"Variable: AESDTH\nLabel: 导致死亡\nDomain: AE\n域描述: 不良事件域 - 记录受试者在研究期间发生的不良事件信息",
    "metadata":"{\"variable\": \"AESDTH\", \"label\": \"导致死亡\", \"core\": \"可有\", \"domain\": \"AE\", \"language\": \"zh\", \"type\": \"sdtm_spec_field\", \"confidence_default\": 0.7, \"metadata_variable\": \"AESDTH\", \"source\": \"sdtm_spec_v3.2_temp\"}",
    "variable":"AESDTH",
    "label":"导致死亡",
    "core":"可有",
    "domain":"AE",
    "metadata_variable":"AESDTH",
    "language":"zh",
    "confidence_default":0.7,
    "source":"sdtm_spec_v3.2_temp",
    "keywords":null,
    "common_tables":null,
    "var_description":null
  },
  {
    "chunk_id":"SDTM_SPEC::AESHOSP",
    "chunk_text":"Variable: AESHOSP\nLabel: 导致住院或住院时间延长\nDomain: AE\n域描述: 不良事件域 - 记录受试者在研究期间发生的不良事件信息",
    "metadata":"{\"variable\": \"AESHOSP\", \"label\": \"导致住院或住院时间延长\", \"core\": \"可有\", \"domain\": \"AE\", \"language\": \"zh\", \"type\": \"sdtm_spec_field\", \"confidence_default\": 0.7, \"metadata_variable\": \"AESHOSP\", \"source\": \"sdtm_spec_v3.2_temp\"}",
    "variable":"AESHOSP",
    "label":"导致住院或住院时间延长",
    "core":"可有",
    "domain":"AE",
    "metadata_variable":"AESHOSP",
    "language":"zh",
    "confidence_default":0.7,
    "source":"sdtm_spec_v3.2_temp",
    "keywords":null,
    "common_tables":null,
    "var_description":null
  },
  {
    "chunk_id":"SDTM_SPEC::AESLIFE",
    "chunk_text":"Variable: AESLIFE\nLabel: 危及生命\nDomain: AE\n域描述: 不良事件域 - 记录受试者在研究期间发生的不良事件信息",
    "metadata":"{\"variable\": \"AESLIFE\", \"label\": \"危及生命\", \"core\": \"可有\", \"domain\": \"AE\", \"language\": \"zh\", \"type\": \"sdtm_spec_field\", \"confidence_default\": 0.7, \"metadata_variable\": \"AESLIFE\", \"source\": \"sdtm_spec_v3.2_temp\"}",
    "variable":"AESLIFE",
    "label":"危及生命",
    "core":"可有",
    "domain":"AE",
    "metadata_variable":"AESLIFE",
    "language":"zh",
    "confidence_default":0.7,
    "source":"sdtm_spec_v3.2_temp",
    "keywords":null,
    "common_tables":null,
    "var_description":null
  },
  {
    "chunk_id":"SDTM_SPEC::AESMIE",
    "chunk_text":"Variable: AESMIE\nLabel: 其它重要的医学事件\nDomain: AE\n域描述: 不良事件域 - 记录受试者在研究期间发生的不良事件信息",
    "metadata":"{\"variable\": \"AESMIE\", \"label\": \"其它重要的医学事件\", \"core\": \"可有\", \"domain\": \"AE\", \"language\": \"zh\", \"type\": \"sdtm_spec_field\", \"confidence_default\": 0.7, \"metadata_variable\": \"AESMIE\", \"source\": \"sdtm_spec_v3.2_temp\"}",
    "variable":"AESMIE",
    "label":"其它重要的医学事件",
    "core":"可有",
    "domain":"AE",
    "metadata_variable":"AESMIE",
    "language":"zh",
    "confidence_default":0.7,
    "source":"sdtm_spec_v3.2_temp",
    "keywords":null,
    "common_tables":null,
    "var_description":null
  },
  {
    "chunk_id":"SDTM_SPEC::AECONTRT",
    "chunk_text":"Variable: AECONTRT\nLabel: 是否给予合并或额外的治疗\nDomain: AE\n域描述: 不良事件域 - 记录受试者在研究期间发生的不良事件信息",
    "metadata":"{\"variable\": \"AECONTRT\", \"label\": \"是否给予合并或额外的治疗\", \"core\": \"可有\", \"domain\": \"AE\", \"language\": \"zh\", \"type\": \"sdtm_spec_field\", \"confidence_default\": 0.7, \"metadata_variable\": \"AECONTRT\", \"source\": \"sdtm_spec_v3.2_temp\"}",
    "variable":"AECONTRT",
    "label":"是否给予合并或额外的治疗",
    "core":"可有",
    "domain":"AE",
    "metadata_variable":"AECONTRT",
    "language":"zh",
    "confidence_default":0.7,
    "source":"sdtm_spec_v3.2_temp",
    "keywords":null,
    "common_tables":null,
    "var_description":null
  },
  {
    "chunk_id":"SDTM_SPEC::AETOXGR",
    "chunk_text":"Variable: AETOXGR\nLabel: 毒性分级\nDomain: AE\n域描述: 不良事件域 - 记录受试者在研究期间发生的不良事件信息",
    "metadata":"{\"variable\": \"AETOXGR\", \"label\": \"毒性分级\", \"core\": \"可有\", \"domain\": \"AE\", \"language\": \"zh\", \"type\": \"sdtm_spec_field\", \"confidence_default\": 0.7, \"metadata_variable\": \"AETOXGR\", \"source\": \"sdtm_spec_v3.2_temp\"}",
    "variable":"AETOXGR",
    "label":"毒性分级",
    "core":"可有",
    "domain":"AE",
    "metadata_variable":"AETOXGR",
    "language":"zh",
    "confidence_default":0.7,
    "source":"sdtm_spec_v3.2_temp",
    "keywords":null,
    "common_tables":null,
    "var_description":null
  },
  {
    "chunk_id":"SDTM_SPEC::AESTDTC",
    "chunk_text":"Variable: AESTDTC\nLabel: 开始日期\/时间\nDomain: AE\n域描述: 不良事件域 - 记录受试者在研究期间发生的不良事件信息\n变量描述: 不良事件的开始日期时间，ISO8601格式\n关键词: 不良事件开始日期, AE开始日期, 事件开始日期, 发生日期, 开始日期\n常见表名: 不良事件, AE",
    "metadata":"{\"variable\": \"AESTDTC\", \"label\": \"开始日期\/时间\", \"core\": \"期望\", \"domain\": \"AE\", \"language\": \"zh\", \"type\": \"sdtm_spec_field\", \"confidence_default\": 0.7, \"metadata_variable\": \"AESTDTC\", \"source\": \"sdtm_spec_v3.2_temp\"}",
    "variable":"AESTDTC",
    "label":"开始日期\/时间",
    "core":"期望",
    "domain":"AE",
    "metadata_variable":"AESTDTC",
    "language":"zh",
    "confidence_default":0.7,
    "source":"sdtm_spec_v3.2_temp",
    "keywords":[
      "不良事件开始日期",
      "AE开始日期",
      "事件开始日期",
      "发生日期",
      "开始日期"
    ],
    "common_tables":[
      "不良事件",
      "AE"
    ],
    "var_description":"不良事件的开始日期时间，ISO8601格式"
  },
  {
    "chunk_id":"SDTM_SPEC::AEENDTC",
    "chunk_text":"Variable: AEENDTC\nLabel: 结束日期\/时间\nDomain: AE\n域描述: 不良事件域 - 记录受试者在研究期间发生的不良事件信息\n变量描述: 不良事件的结束日期时间，ISO8601格式\n关键词: 不良事件结束日期, AE结束日期, 事件结束日期, 恢复日期, 结束日期\n常见表名: 不良事件, AE",
    "metadata":"{\"variable\": \"AEENDTC\", \"label\": \"结束日期\/时间\", \"core\": \"期望\", \"domain\": \"AE\", \"language\": \"zh\", \"type\": \"sdtm_spec_field\", \"confidence_default\": 0.7, \"metadata_variable\": \"AEENDTC\", \"source\": \"sdtm_spec_v3.2_temp\"}",
    "variable":"AEENDTC",
    "label":"结束日期\/时间",
    "core":"期望",
    "domain":"AE",
    "metadata_variable":"AEENDTC",
    "language":"zh",
    "confidence_default":0.7,
    "source":"sdtm_spec_v3.2_temp",
    "keywords":[
      "不良事件结束日期",
      "AE结束日期",
      "事件结束日期",
      "恢复日期",
      "结束日期"
    ],
    "common_tables":[
      "不良事件",
      "AE"
    ],
    "var_description":"不良事件的结束日期时间，ISO8601格式"
  },
  {
    "chunk_id":"SDTM_SPEC::AESTDY",
    "chunk_text":"Variable: AESTDY\nLabel: 开始日\nDomain: AE\n域描述: 不良事件域 - 记录受试者在研究期间发生的不良事件信息",
    "metadata":"{\"variable\": \"AESTDY\", \"label\": \"开始日\", \"core\": \"可有\", \"domain\": \"AE\", \"language\": \"zh\", \"type\": \"sdtm_spec_field\", \"confidence_default\": 0.7, \"metadata_variable\": \"AESTDY\", \"source\": \"sdtm_spec_v3.2_temp\"}",
    "variable":"AESTDY",
    "label":"开始日",
    "core":"可有",
    "domain":"AE",
    "metadata_variable":"AESTDY",
    "language":"zh",
    "confidence_default":0.7,
    "source":"sdtm_spec_v3.2_temp",
    "keywords":null,
    "common_tables":null,
    "var_description":null
  },
  {
    "chunk_id":"SDTM_SPEC::AEENDY",
    "chunk_text":"Variable: AEENDY\nLabel: 结束日\nDomain: AE\n域描述: 不良事件域 - 记录受试者在研究期间发生的不良事件信息",
    "metadata":"{\"variable\": \"AEENDY\", \"label\": \"结束日\", \"core\": \"可有\", \"domain\": \"AE\", \"language\": \"zh\", \"type\": \"sdtm_spec_field\", \"confidence_default\": 0.7, \"metadata_variable\": \"AEENDY\", \"source\": \"sdtm_spec_v3.2_temp\"}",
    "variable":"AEENDY",
    "label":"结束日",
    "core":"可有",
    "domain":"AE",
    "metadata_variable":"AEENDY",
    "language":"zh",
    "confidence_default":0.7,
    "source":"sdtm_spec_v3.2_temp",
    "keywords":null,
    "common_tables":null,
    "var_description":null
  },
  {
    "chunk_id":"SDTM_SPEC::AEDUR",
    "chunk_text":"Variable: AEDUR\nLabel: 持续时间\nDomain: AE\n域描述: 不良事件域 - 记录受试者在研究期间发生的不良事件信息",
    "metadata":"{\"variable\": \"AEDUR\", \"label\": \"持续时间\", \"core\": \"可有\", \"domain\": \"AE\", \"language\": \"zh\", \"type\": \"sdtm_spec_field\", \"confidence_default\": 0.7, \"metadata_variable\": \"AEDUR\", \"source\": \"sdtm_spec_v3.2_temp\"}",
    "variable":"AEDUR",
    "label":"持续时间",
    "core":"可有",
    "domain":"AE",
    "metadata_variable":"AEDUR",
    "language":"zh",
    "confidence_default":0.7,
    "source":"sdtm_spec_v3.2_temp",
    "keywords":null,
    "common_tables":null,
    "var_description":null
  },
  {
    "chunk_id":"SDTM_SPEC::AEENRF",
    "chunk_text":"Variable: AEENRF\nLabel: 结束时间-相对参照区间\nDomain: AE\n域描述: 不良事件域 - 记录受试者在研究期间发生的不良事件信息",
    "metadata":"{\"variable\": \"AEENRF\", \"label\": \"结束时间-相对参照区间\", \"core\": \"可有\", \"domain\": \"AE\", \"language\": \"zh\", \"type\": \"sdtm_spec_field\", \"confidence_default\": 0.7, \"metadata_variable\": \"AEENRF\", \"source\": \"sdtm_spec_v3.2_temp\"}",
    "variable":"AEENRF",
    "label":"结束时间-相对参照区间",
    "core":"可有",
    "domain":"AE",
    "metadata_variable":"AEENRF",
    "language":"zh",
    "confidence_default":0.7,
    "source":"sdtm_spec_v3.2_temp",
    "keywords":null,
    "common_tables":null,
    "var_description":null
  },
  {
    "chunk_id":"SDTM_SPEC::AEENRTPT",
    "chunk_text":"Variable: AEENRTPT\nLabel: 结束时间-相对参照时点\nDomain: AE\n域描述: 不良事件域 - 记录受试者在研究期间发生的不良事件信息",
    "metadata":"{\"variable\": \"AEENRTPT\", \"label\": \"结束时间-相对参照时点\", \"core\": \"可有\", \"domain\": \"AE\", \"language\": \"zh\", \"type\": \"sdtm_spec_field\", \"confidence_default\": 0.7, \"metadata_variable\": \"AEENRTPT\", \"source\": \"sdtm_spec_v3.2_temp\"}",
    "variable":"AEENRTPT",
    "label":"结束时间-相对参照时点",
    "core":"可有",
    "domain":"AE",
    "metadata_variable":"AEENRTPT",
    "language":"zh",
    "confidence_default":0.7,
    "source":"sdtm_spec_v3.2_temp",
    "keywords":null,
    "common_tables":null,
    "var_description":null
  },
  {
    "chunk_id":"SDTM_SPEC::AEENTPT",
    "chunk_text":"Variable: AEENTPT\nLabel: 结束时间的参照时点\nDomain: AE\n域描述: 不良事件域 - 记录受试者在研究期间发生的不良事件信息",
    "metadata":"{\"variable\": \"AEENTPT\", \"label\": \"结束时间的参照时点\", \"core\": \"可有\", \"domain\": \"AE\", \"language\": \"zh\", \"type\": \"sdtm_spec_field\", \"confidence_default\": 0.7, \"metadata_variable\": \"AEENTPT\", \"source\": \"sdtm_spec_v3.2_temp\"}",
    "variable":"AEENTPT",
    "label":"结束时间的参照时点",
    "core":"可有",
    "domain":"AE",
    "metadata_variable":"AEENTPT",
    "language":"zh",
    "confidence_default":0.7,
    "source":"sdtm_spec_v3.2_temp",
    "keywords":null,
    "common_tables":null,
    "var_description":null
  },
  {
    "chunk_id":"SDTM_SPEC::STUDYID",
    "chunk_text":"Variable: STUDYID\nLabel: 研究标识符\nDomain: CE",
    "metadata":"{\"variable\": \"STUDYID\", \"label\": \"研究标识符\", \"core\": \"必需\", \"domain\": \"CE\", \"language\": \"zh\", \"type\": \"sdtm_spec_field\", \"confidence_default\": 0.7, \"metadata_variable\": \"STUDYID\", \"source\": \"sdtm_spec_v3.2_temp\"}",
    "variable":"STUDYID",
    "label":"研究标识符",
    "core":"必需",
    "domain":"CE",
    "metadata_variable":"STUDYID",
    "language":"zh",
    "confidence_default":0.7,
    "source":"sdtm_spec_v3.2_temp",
    "keywords":null,
    "common_tables":null,
    "var_description":null
  },
  {
    "chunk_id":"SDTM_SPEC::DOMAIN",
    "chunk_text":"Variable: DOMAIN\nLabel: 域名缩写\nDomain: CE",
    "metadata":"{\"variable\": \"DOMAIN\", \"label\": \"域名缩写\", \"core\": \"必需\", \"domain\": \"CE\", \"language\": \"zh\", \"type\": \"sdtm_spec_field\", \"confidence_default\": 0.7, \"metadata_variable\": \"DOMAIN\", \"source\": \"sdtm_spec_v3.2_temp\"}",
    "variable":"DOMAIN",
    "label":"域名缩写",
    "core":"必需",
    "domain":"CE",
    "metadata_variable":"DOMAIN",
    "language":"zh",
    "confidence_default":0.7,
    "source":"sdtm_spec_v3.2_temp",
    "keywords":null,
    "common_tables":null,
    "var_description":null
  },
  {
    "chunk_id":"SDTM_SPEC::USUBJID",
    "chunk_text":"Variable: USUBJID\nLabel: 受试者唯一标识符\nDomain: CE",
    "metadata":"{\"variable\": \"USUBJID\", \"label\": \"受试者唯一标识符\", \"core\": \"必需\", \"domain\": \"CE\", \"language\": \"zh\", \"type\": \"sdtm_spec_field\", \"confidence_default\": 0.7, \"metadata_variable\": \"USUBJID\", \"source\": \"sdtm_spec_v3.2_temp\"}",
    "variable":"USUBJID",
    "label":"受试者唯一标识符",
    "core":"必需",
    "domain":"CE",
    "metadata_variable":"USUBJID",
    "language":"zh",
    "confidence_default":0.7,
    "source":"sdtm_spec_v3.2_temp",
    "keywords":null,
    "common_tables":null,
    "var_description":null
  },
  {
    "chunk_id":"SDTM_SPEC::CESEQ",
    "chunk_text":"Variable: CESEQ\nLabel: 序号\nDomain: CE",
    "metadata":"{\"variable\": \"CESEQ\", \"label\": \"序号\", \"core\": \"必需\", \"domain\": \"CE\", \"language\": \"zh\", \"type\": \"sdtm_spec_field\", \"confidence_default\": 0.7, \"metadata_variable\": \"CESEQ\", \"source\": \"sdtm_spec_v3.2_temp\"}",
    "variable":"CESEQ",
    "label":"序号",
    "core":"必需",
    "domain":"CE",
    "metadata_variable":"CESEQ",
    "language":"zh",
    "confidence_default":0.7,
    "source":"sdtm_spec_v3.2_temp",
    "keywords":null,
    "common_tables":null,
    "var_description":null
  },
  {
    "chunk_id":"SDTM_SPEC::CEGRPID",
    "chunk_text":"Variable: CEGRPID\nLabel: 组合ID\nDomain: CE",
    "metadata":"{\"variable\": \"CEGRPID\", \"label\": \"组合ID\", \"core\": \"可有\", \"domain\": \"CE\", \"language\": \"zh\", \"type\": \"sdtm_spec_field\", \"confidence_default\": 0.7, \"metadata_variable\": \"CEGRPID\", \"source\": \"sdtm_spec_v3.2_temp\"}",
    "variable":"CEGRPID",
    "label":"组合ID",
    "core":"可有",
    "domain":"CE",
    "metadata_variable":"CEGRPID",
    "language":"zh",
    "confidence_default":0.7,
    "source":"sdtm_spec_v3.2_temp",
    "keywords":null,
    "common_tables":null,
    "var_description":null
  },
  {
    "chunk_id":"SDTM_SPEC::CEREFID",
    "chunk_text":"Variable: CEREFID\nLabel: 参考ID\nDomain: CE",
    "metadata":"{\"variable\": \"CEREFID\", \"label\": \"参考ID\", \"core\": \"可有\", \"domain\": \"CE\", \"language\": \"zh\", \"type\": \"sdtm_spec_field\", \"confidence_default\": 0.7, \"metadata_variable\": \"CEREFID\", \"source\": \"sdtm_spec_v3.2_temp\"}",
    "variable":"CEREFID",
    "label":"参考ID",
    "core":"可有",
    "domain":"CE",
    "metadata_variable":"CEREFID",
    "language":"zh",
    "confidence_default":0.7,
    "source":"sdtm_spec_v3.2_temp",
    "keywords":null,
    "common_tables":null,
    "var_description":null
  },
  {
    "chunk_id":"SDTM_SPEC::CESPID",
    "chunk_text":"Variable: CESPID\nLabel: 自定义标识符\nDomain: CE",
    "metadata":"{\"variable\": \"CESPID\", \"label\": \"自定义标识符\", \"core\": \"可有\", \"domain\": \"CE\", \"language\": \"zh\", \"type\": \"sdtm_spec_field\", \"confidence_default\": 0.7, \"metadata_variable\": \"CESPID\", \"source\": \"sdtm_spec_v3.2_temp\"}",
    "variable":"CESPID",
    "label":"自定义标识符",
    "core":"可有",
    "domain":"CE",
    "metadata_variable":"CESPID",
    "language":"zh",
    "confidence_default":0.7,
    "source":"sdtm_spec_v3.2_temp",
    "keywords":null,
    "common_tables":null,
    "var_description":null
  },
  {
    "chunk_id":"SDTM_SPEC::CETERM",
    "chunk_text":"Variable: CETERM\nLabel: 临床事件报告名称\nDomain: CE",
    "metadata":"{\"variable\": \"CETERM\", \"label\": \"临床事件报告名称\", \"core\": \"必需\", \"domain\": \"CE\", \"language\": \"zh\", \"type\": \"sdtm_spec_field\", \"confidence_default\": 0.7, \"metadata_variable\": \"CETERM\", \"source\": \"sdtm_spec_v3.2_temp\"}",
    "variable":"CETERM",
    "label":"临床事件报告名称",
    "core":"必需",
    "domain":"CE",
    "metadata_variable":"CETERM",
    "language":"zh",
    "confidence_default":0.7,
    "source":"sdtm_spec_v3.2_temp",
    "keywords":null,
    "common_tables":null,
    "var_description":null
  },
  {
    "chunk_id":"SDTM_SPEC::CEDECOD",
    "chunk_text":"Variable: CEDECOD\nLabel: 标准化名称\nDomain: CE",
    "metadata":"{\"variable\": \"CEDECOD\", \"label\": \"标准化名称\", \"core\": \"可有\", \"domain\": \"CE\", \"language\": \"zh\", \"type\": \"sdtm_spec_field\", \"confidence_default\": 0.7, \"metadata_variable\": \"CEDECOD\", \"source\": \"sdtm_spec_v3.2_temp\"}",
    "variable":"CEDECOD",
    "label":"标准化名称",
    "core":"可有",
    "domain":"CE",
    "metadata_variable":"CEDECOD",
    "language":"zh",
    "confidence_default":0.7,
    "source":"sdtm_spec_v3.2_temp",
    "keywords":null,
    "common_tables":null,
    "var_description":null
  },
  {
    "chunk_id":"SDTM_SPEC::CECAT",
    "chunk_text":"Variable: CECAT\nLabel: 类别\nDomain: CE",
    "metadata":"{\"variable\": \"CECAT\", \"label\": \"类别\", \"core\": \"可有\", \"domain\": \"CE\", \"language\": \"zh\", \"type\": \"sdtm_spec_field\", \"confidence_default\": 0.7, \"metadata_variable\": \"CECAT\", \"source\": \"sdtm_spec_v3.2_temp\"}",
    "variable":"CECAT",
    "label":"类别",
    "core":"可有",
    "domain":"CE",
    "metadata_variable":"CECAT",
    "language":"zh",
    "confidence_default":0.7,
    "source":"sdtm_spec_v3.2_temp",
    "keywords":null,
    "common_tables":null,
    "var_description":null
  },
  {
    "chunk_id":"SDTM_SPEC::CESCAT",
    "chunk_text":"Variable: CESCAT\nLabel: 子类\nDomain: CE",
    "metadata":"{\"variable\": \"CESCAT\", \"label\": \"子类\", \"core\": \"可有\", \"domain\": \"CE\", \"language\": \"zh\", \"type\": \"sdtm_spec_field\", \"confidence_default\": 0.7, \"metadata_variable\": \"CESCAT\", \"source\": \"sdtm_spec_v3.2_temp\"}",
    "variable":"CESCAT",
    "label":"子类",
    "core":"可有",
    "domain":"CE",
    "metadata_variable":"CESCAT",
    "language":"zh",
    "confidence_default":0.7,
    "source":"sdtm_spec_v3.2_temp",
    "keywords":null,
    "common_tables":null,
    "var_description":null
  },
  {
    "chunk_id":"SDTM_SPEC::CEPRESP",
    "chunk_text":"Variable: CEPRESP\nLabel: 预设\nDomain: CE",
    "metadata":"{\"variable\": \"CEPRESP\", \"label\": \"预设\", \"core\": \"可有\", \"domain\": \"CE\", \"language\": \"zh\", \"type\": \"sdtm_spec_field\", \"confidence_default\": 0.7, \"metadata_variable\": \"CEPRESP\", \"source\": \"sdtm_spec_v3.2_temp\"}",
    "variable":"CEPRESP",
    "label":"预设",
    "core":"可有",
    "domain":"CE",
    "metadata_variable":"CEPRESP",
    "language":"zh",
    "confidence_default":0.7,
    "source":"sdtm_spec_v3.2_temp",
    "keywords":null,
    "common_tables":null,
    "var_description":null
  },
  {
    "chunk_id":"SDTM_SPEC::CEOCCUR",
    "chunk_text":"Variable: CEOCCUR\nLabel: 是否发生\nDomain: CE",
    "metadata":"{\"variable\": \"CEOCCUR\", \"label\": \"是否发生\", \"core\": \"可有\", \"domain\": \"CE\", \"language\": \"zh\", \"type\": \"sdtm_spec_field\", \"confidence_default\": 0.7, \"metadata_variable\": \"CEOCCUR\", \"source\": \"sdtm_spec_v3.2_temp\"}",
    "variable":"CEOCCUR",
    "label":"是否发生",
    "core":"可有",
    "domain":"CE",
    "metadata_variable":"CEOCCUR",
    "language":"zh",
    "confidence_default":0.7,
    "source":"sdtm_spec_v3.2_temp",
    "keywords":null,
    "common_tables":null,
    "var_description":null
  },
  {
    "chunk_id":"SDTM_SPEC::CESTAT",
    "chunk_text":"Variable: CESTAT\nLabel: 未做状态\nDomain: CE",
    "metadata":"{\"variable\": \"CESTAT\", \"label\": \"未做状态\", \"core\": \"可有\", \"domain\": \"CE\", \"language\": \"zh\", \"type\": \"sdtm_spec_field\", \"confidence_default\": 0.7, \"metadata_variable\": \"CESTAT\", \"source\": \"sdtm_spec_v3.2_temp\"}",
    "variable":"CESTAT",
    "label":"未做状态",
    "core":"可有",
    "domain":"CE",
    "metadata_variable":"CESTAT",
    "language":"zh",
    "confidence_default":0.7,
    "source":"sdtm_spec_v3.2_temp",
    "keywords":null,
    "common_tables":null,
    "var_description":null
  },
  {
    "chunk_id":"SDTM_SPEC::CEREASND",
    "chunk_text":"Variable: CEREASND\nLabel: 未做原因\nDomain: CE",
    "metadata":"{\"variable\": \"CEREASND\", \"label\": \"未做原因\", \"core\": \"可有\", \"domain\": \"CE\", \"language\": \"zh\", \"type\": \"sdtm_spec_field\", \"confidence_default\": 0.7, \"metadata_variable\": \"CEREASND\", \"source\": \"sdtm_spec_v3.2_temp\"}",
    "variable":"CEREASND",
    "label":"未做原因",
    "core":"可有",
    "domain":"CE",
    "metadata_variable":"CEREASND",
    "language":"zh",
    "confidence_default":0.7,
    "source":"sdtm_spec_v3.2_temp",
    "keywords":null,
    "common_tables":null,
    "var_description":null
  },
  {
    "chunk_id":"SDTM_SPEC::CEBODSYS",
    "chunk_text":"Variable: CEBODSYS\nLabel: 系统器官分类\nDomain: CE",
    "metadata":"{\"variable\": \"CEBODSYS\", \"label\": \"系统器官分类\", \"core\": \"可有\", \"domain\": \"CE\", \"language\": \"zh\", \"type\": \"sdtm_spec_field\", \"confidence_default\": 0.7, \"metadata_variable\": \"CEBODSYS\", \"source\": \"sdtm_spec_v3.2_temp\"}",
    "variable":"CEBODSYS",
    "label":"系统器官分类",
    "core":"可有",
    "domain":"CE",
    "metadata_variable":"CEBODSYS",
    "language":"zh",
    "confidence_default":0.7,
    "source":"sdtm_spec_v3.2_temp",
    "keywords":null,
    "common_tables":null,
    "var_description":null
  },
  {
    "chunk_id":"SDTM_SPEC::CESEV",
    "chunk_text":"Variable: CESEV\nLabel: 严重程度\nDomain: CE",
    "metadata":"{\"variable\": \"CESEV\", \"label\": \"严重程度\", \"core\": \"可有\", \"domain\": \"CE\", \"language\": \"zh\", \"type\": \"sdtm_spec_field\", \"confidence_default\": 0.7, \"metadata_variable\": \"CESEV\", \"source\": \"sdtm_spec_v3.2_temp\"}",
    "variable":"CESEV",
    "label":"严重程度",
    "core":"可有",
    "domain":"CE",
    "metadata_variable":"CESEV",
    "language":"zh",
    "confidence_default":0.7,
    "source":"sdtm_spec_v3.2_temp",
    "keywords":null,
    "common_tables":null,
    "var_description":null
  },
  {
    "chunk_id":"SDTM_SPEC::CEDTC",
    "chunk_text":"Variable: CEDTC\nLabel: 采集日期\/时间\nDomain: CE",
    "metadata":"{\"variable\": \"CEDTC\", \"label\": \"采集日期\/时间\", \"core\": \"可有\", \"domain\": \"CE\", \"language\": \"zh\", \"type\": \"sdtm_spec_field\", \"confidence_default\": 0.7, \"metadata_variable\": \"CEDTC\", \"source\": \"sdtm_spec_v3.2_temp\"}",
    "variable":"CEDTC",
    "label":"采集日期\/时间",
    "core":"可有",
    "domain":"CE",
    "metadata_variable":"CEDTC",
    "language":"zh",
    "confidence_default":0.7,
    "source":"sdtm_spec_v3.2_temp",
    "keywords":null,
    "common_tables":null,
    "var_description":null
  },
  {
    "chunk_id":"SDTM_SPEC::CESTDTC",
    "chunk_text":"Variable: CESTDTC\nLabel: 开始日期\/时间\nDomain: CE",
    "metadata":"{\"variable\": \"CESTDTC\", \"label\": \"开始日期\/时间\", \"core\": \"可有\", \"domain\": \"CE\", \"language\": \"zh\", \"type\": \"sdtm_spec_field\", \"confidence_default\": 0.7, \"metadata_variable\": \"CESTDTC\", \"source\": \"sdtm_spec_v3.2_temp\"}",
    "variable":"CESTDTC",
    "label":"开始日期\/时间",
    "core":"可有",
    "domain":"CE",
    "metadata_variable":"CESTDTC",
    "language":"zh",
    "confidence_default":0.7,
    "source":"sdtm_spec_v3.2_temp",
    "keywords":null,
    "common_tables":null,
    "var_description":null
  },
  {
    "chunk_id":"SDTM_SPEC::CEENDTC",
    "chunk_text":"Variable: CEENDTC\nLabel: 结束日期\/时间\nDomain: CE",
    "metadata":"{\"variable\": \"CEENDTC\", \"label\": \"结束日期\/时间\", \"core\": \"可有\", \"domain\": \"CE\", \"language\": \"zh\", \"type\": \"sdtm_spec_field\", \"confidence_default\": 0.7, \"metadata_variable\": \"CEENDTC\", \"source\": \"sdtm_spec_v3.2_temp\"}",
    "variable":"CEENDTC",
    "label":"结束日期\/时间",
    "core":"可有",
    "domain":"CE",
    "metadata_variable":"CEENDTC",
    "language":"zh",
    "confidence_default":0.7,
    "source":"sdtm_spec_v3.2_temp",
    "keywords":null,
    "common_tables":null,
    "var_description":null
  },
  {
    "chunk_id":"SDTM_SPEC::CEDY",
    "chunk_text":"Variable: CEDY\nLabel: 采集日\nDomain: CE",
    "metadata":"{\"variable\": \"CEDY\", \"label\": \"采集日\", \"core\": \"可有\", \"domain\": \"CE\", \"language\": \"zh\", \"type\": \"sdtm_spec_field\", \"confidence_default\": 0.7, \"metadata_variable\": \"CEDY\", \"source\": \"sdtm_spec_v3.2_temp\"}",
    "variable":"CEDY",
    "label":"采集日",
    "core":"可有",
    "domain":"CE",
    "metadata_variable":"CEDY",
    "language":"zh",
    "confidence_default":0.7,
    "source":"sdtm_spec_v3.2_temp",
    "keywords":null,
    "common_tables":null,
    "var_description":null
  },
  {
    "chunk_id":"SDTM_SPEC::CESTRF",
    "chunk_text":"Variable: CESTRF\nLabel: 开始时间-相对参照区间\nDomain: CE",
    "metadata":"{\"variable\": \"CESTRF\", \"label\": \"开始时间-相对参照区间\", \"core\": \"可有\", \"domain\": \"CE\", \"language\": \"zh\", \"type\": \"sdtm_spec_field\", \"confidence_default\": 0.7, \"metadata_variable\": \"CESTRF\", \"source\": \"sdtm_spec_v3.2_temp\"}",
    "variable":"CESTRF",
    "label":"开始时间-相对参照区间",
    "core":"可有",
    "domain":"CE",
    "metadata_variable":"CESTRF",
    "language":"zh",
    "confidence_default":0.7,
    "source":"sdtm_spec_v3.2_temp",
    "keywords":null,
    "common_tables":null,
    "var_description":null
  },
  {
    "chunk_id":"SDTM_SPEC::CEENRF",
    "chunk_text":"Variable: CEENRF\nLabel: 结束时间-相对参照区间\nDomain: CE",
    "metadata":"{\"variable\": \"CEENRF\", \"label\": \"结束时间-相对参照区间\", \"core\": \"可有\", \"domain\": \"CE\", \"language\": \"zh\", \"type\": \"sdtm_spec_field\", \"confidence_default\": 0.7, \"metadata_variable\": \"CEENRF\", \"source\": \"sdtm_spec_v3.2_temp\"}",
    "variable":"CEENRF",
    "label":"结束时间-相对参照区间",
    "core":"可有",
    "domain":"CE",
    "metadata_variable":"CEENRF",
    "language":"zh",
    "confidence_default":0.7,
    "source":"sdtm_spec_v3.2_temp",
    "keywords":null,
    "common_tables":null,
    "var_description":null
  },
  {
    "chunk_id":"SDTM_SPEC::CESTRTPT",
    "chunk_text":"Variable: CESTRTPT\nLabel: 开始时间-相对参照时点\nDomain: CE",
    "metadata":"{\"variable\": \"CESTRTPT\", \"label\": \"开始时间-相对参照时点\", \"core\": \"可有\", \"domain\": \"CE\", \"language\": \"zh\", \"type\": \"sdtm_spec_field\", \"confidence_default\": 0.7, \"metadata_variable\": \"CESTRTPT\", \"source\": \"sdtm_spec_v3.2_temp\"}",
    "variable":"CESTRTPT",
    "label":"开始时间-相对参照时点",
    "core":"可有",
    "domain":"CE",
    "metadata_variable":"CESTRTPT",
    "language":"zh",
    "confidence_default":0.7,
    "source":"sdtm_spec_v3.2_temp",
    "keywords":null,
    "common_tables":null,
    "var_description":null
  },
  {
    "chunk_id":"SDTM_SPEC::CESTTPT",
    "chunk_text":"Variable: CESTTPT\nLabel: 开始时间的参照时点\nDomain: CE",
    "metadata":"{\"variable\": \"CESTTPT\", \"label\": \"开始时间的参照时点\", \"core\": \"可有\", \"domain\": \"CE\", \"language\": \"zh\", \"type\": \"sdtm_spec_field\", \"confidence_default\": 0.7, \"metadata_variable\": \"CESTTPT\", \"source\": \"sdtm_spec_v3.2_temp\"}",
    "variable":"CESTTPT",
    "label":"开始时间的参照时点",
    "core":"可有",
    "domain":"CE",
    "metadata_variable":"CESTTPT",
    "language":"zh",
    "confidence_default":0.7,
    "source":"sdtm_spec_v3.2_temp",
    "keywords":null,
    "common_tables":null,
    "var_description":null
  },
  {
    "chunk_id":"SDTM_SPEC::CEENRTPT",
    "chunk_text":"Variable: CEENRTPT\nLabel: 结束时间-相对参照时点\nDomain: CE",
    "metadata":"{\"variable\": \"CEENRTPT\", \"label\": \"结束时间-相对参照时点\", \"core\": \"可有\", \"domain\": \"CE\", \"language\": \"zh\", \"type\": \"sdtm_spec_field\", \"confidence_default\": 0.7, \"metadata_variable\": \"CEENRTPT\", \"source\": \"sdtm_spec_v3.2_temp\"}",
    "variable":"CEENRTPT",
    "label":"结束时间-相对参照时点",
    "core":"可有",
    "domain":"CE",
    "metadata_variable":"CEENRTPT",
    "language":"zh",
    "confidence_default":0.7,
    "source":"sdtm_spec_v3.2_temp",
    "keywords":null,
    "common_tables":null,
    "var_description":null
  },
  {
    "chunk_id":"SDTM_SPEC::CEENTPT",
    "chunk_text":"Variable: CEENTPT\nLabel: 结束时间的参照时点\nDomain: CE",
    "metadata":"{\"variable\": \"CEENTPT\", \"label\": \"结束时间的参照时点\", \"core\": \"可有\", \"domain\": \"CE\", \"language\": \"zh\", \"type\": \"sdtm_spec_field\", \"confidence_default\": 0.7, \"metadata_variable\": \"CEENTPT\", \"source\": \"sdtm_spec_v3.2_temp\"}",
    "variable":"CEENTPT",
    "label":"结束时间的参照时点",
    "core":"可有",
    "domain":"CE",
    "metadata_variable":"CEENTPT",
    "language":"zh",
    "confidence_default":0.7,
    "source":"sdtm_spec_v3.2_temp",
    "keywords":null,
    "common_tables":null,
    "var_description":null
  },
  {
    "chunk_id":"SDTM_SPEC::STUDYID",
    "chunk_text":"Variable: STUDYID\nLabel: 研究标识符\nDomain: CM\n域描述: 合并用药域 - 记录受试者的合并用药和既往用药信息",
    "metadata":"{\"variable\": \"STUDYID\", \"label\": \"研究标识符\", \"core\": \"必需\", \"domain\": \"CM\", \"language\": \"zh\", \"type\": \"sdtm_spec_field\", \"confidence_default\": 0.7, \"metadata_variable\": \"STUDYID\", \"source\": \"sdtm_spec_v3.2_temp\"}",
    "variable":"STUDYID",
    "label":"研究标识符",
    "core":"必需",
    "domain":"CM",
    "metadata_variable":"STUDYID",
    "language":"zh",
    "confidence_default":0.7,
    "source":"sdtm_spec_v3.2_temp",
    "keywords":null,
    "common_tables":null,
    "var_description":null
  },
  {
    "chunk_id":"SDTM_SPEC::DOMAIN",
    "chunk_text":"Variable: DOMAIN\nLabel: 域名缩写\nDomain: CM\n域描述: 合并用药域 - 记录受试者的合并用药和既往用药信息",
    "metadata":"{\"variable\": \"DOMAIN\", \"label\": \"域名缩写\", \"core\": \"必需\", \"domain\": \"CM\", \"language\": \"zh\", \"type\": \"sdtm_spec_field\", \"confidence_default\": 0.7, \"metadata_variable\": \"DOMAIN\", \"source\": \"sdtm_spec_v3.2_temp\"}",
    "variable":"DOMAIN",
    "label":"域名缩写",
    "core":"必需",
    "domain":"CM",
    "metadata_variable":"DOMAIN",
    "language":"zh",
    "confidence_default":0.7,
    "source":"sdtm_spec_v3.2_temp",
    "keywords":null,
    "common_tables":null,
    "var_description":null
  },
  {
    "chunk_id":"SDTM_SPEC::USUBJID",
    "chunk_text":"Variable: USUBJID\nLabel: 受试者唯一标识符\nDomain: CM\n域描述: 合并用药域 - 记录受试者的合并用药和既往用药信息",
    "metadata":"{\"variable\": \"USUBJID\", \"label\": \"受试者唯一标识符\", \"core\": \"必需\", \"domain\": \"CM\", \"language\": \"zh\", \"type\": \"sdtm_spec_field\", \"confidence_default\": 0.7, \"metadata_variable\": \"USUBJID\", \"source\": \"sdtm_spec_v3.2_temp\"}",
    "variable":"USUBJID",
    "label":"受试者唯一标识符",
    "core":"必需",
    "domain":"CM",
    "metadata_variable":"USUBJID",
    "language":"zh",
    "confidence_default":0.7,
    "source":"sdtm_spec_v3.2_temp",
    "keywords":null,
    "common_tables":null,
    "var_description":null
  },
  {
    "chunk_id":"SDTM_SPEC::CMSEQ",
    "chunk_text":"Variable: CMSEQ\nLabel: 序号\nDomain: CM\n域描述: 合并用药域 - 记录受试者的合并用药和既往用药信息",
    "metadata":"{\"variable\": \"CMSEQ\", \"label\": \"序号\", \"core\": \"必需\", \"domain\": \"CM\", \"language\": \"zh\", \"type\": \"sdtm_spec_field\", \"confidence_default\": 0.7, \"metadata_variable\": \"CMSEQ\", \"source\": \"sdtm_spec_v3.2_temp\"}",
    "variable":"CMSEQ",
    "label":"序号",
    "core":"必需",
    "domain":"CM",
    "metadata_variable":"CMSEQ",
    "language":"zh",
    "confidence_default":0.7,
    "source":"sdtm_spec_v3.2_temp",
    "keywords":null,
    "common_tables":null,
    "var_description":null
  },
  {
    "chunk_id":"SDTM_SPEC::CMGRPID",
    "chunk_text":"Variable: CMGRPID\nLabel: 组合ID\nDomain: CM\n域描述: 合并用药域 - 记录受试者的合并用药和既往用药信息",
    "metadata":"{\"variable\": \"CMGRPID\", \"label\": \"组合ID\", \"core\": \"可有\", \"domain\": \"CM\", \"language\": \"zh\", \"type\": \"sdtm_spec_field\", \"confidence_default\": 0.7, \"metadata_variable\": \"CMGRPID\", \"source\": \"sdtm_spec_v3.2_temp\"}",
    "variable":"CMGRPID",
    "label":"组合ID",
    "core":"可有",
    "domain":"CM",
    "metadata_variable":"CMGRPID",
    "language":"zh",
    "confidence_default":0.7,
    "source":"sdtm_spec_v3.2_temp",
    "keywords":null,
    "common_tables":null,
    "var_description":null
  },
  {
    "chunk_id":"SDTM_SPEC::CMSPID",
    "chunk_text":"Variable: CMSPID\nLabel: 自定义标识符\nDomain: CM\n域描述: 合并用药域 - 记录受试者的合并用药和既往用药信息",
    "metadata":"{\"variable\": \"CMSPID\", \"label\": \"自定义标识符\", \"core\": \"可有\", \"domain\": \"CM\", \"language\": \"zh\", \"type\": \"sdtm_spec_field\", \"confidence_default\": 0.7, \"metadata_variable\": \"CMSPID\", \"source\": \"sdtm_spec_v3.2_temp\"}",
    "variable":"CMSPID",
    "label":"自定义标识符",
    "core":"可有",
    "domain":"CM",
    "metadata_variable":"CMSPID",
    "language":"zh",
    "confidence_default":0.7,
    "source":"sdtm_spec_v3.2_temp",
    "keywords":null,
    "common_tables":null,
    "var_description":null
  },
  {
    "chunk_id":"SDTM_SPEC::CMTRT",
    "chunk_text":"Variable: CMTRT\nLabel: 治疗报告名称\nDomain: CM\n域描述: 合并用药域 - 记录受试者的合并用药和既往用药信息\n变量描述: 合并用药或既往用药的药物名称\n关键词: 药物名称, 用药名称, 治疗名称, 药品名称, 合并用药\n常见表名: 既往及合并用药, 合并用药, 药物治疗史, 化疗明细",
    "metadata":"{\"variable\": \"CMTRT\", \"label\": \"治疗报告名称\", \"core\": \"必需\", \"domain\": \"CM\", \"language\": \"zh\", \"type\": \"sdtm_spec_field\", \"confidence_default\": 0.7, \"metadata_variable\": \"CMTRT\", \"source\": \"sdtm_spec_v3.2_temp\"}",
    "variable":"CMTRT",
    "label":"治疗报告名称",
    "core":"必需",
    "domain":"CM",
    "metadata_variable":"CMTRT",
    "language":"zh",
    "confidence_default":0.7,
    "source":"sdtm_spec_v3.2_temp",
    "keywords":[
      "药物名称",
      "用药名称",
      "治疗名称",
      "药品名称",
      "合并用药"
    ],
    "common_tables":[
      "既往及合并用药",
      "合并用药",
      "药物治疗史",
      "化疗明细"
    ],
    "var_description":"合并用药或既往用药的药物名称"
  },
  {
    "chunk_id":"SDTM_SPEC::CMMODIFY",
    "chunk_text":"Variable: CMMODIFY\nLabel: 修正词\nDomain: CM\n域描述: 合并用药域 - 记录受试者的合并用药和既往用药信息",
    "metadata":"{\"variable\": \"CMMODIFY\", \"label\": \"修正词\", \"core\": \"可有\", \"domain\": \"CM\", \"language\": \"zh\", \"type\": \"sdtm_spec_field\", \"confidence_default\": 0.7, \"metadata_variable\": \"CMMODIFY\", \"source\": \"sdtm_spec_v3.2_temp\"}",
    "variable":"CMMODIFY",
    "label":"修正词",
    "core":"可有",
    "domain":"CM",
    "metadata_variable":"CMMODIFY",
    "language":"zh",
    "confidence_default":0.7,
    "source":"sdtm_spec_v3.2_temp",
    "keywords":null,
    "common_tables":null,
    "var_description":null
  },
  {
    "chunk_id":"SDTM_SPEC::CMDECOD",
    "chunk_text":"Variable: CMDECOD\nLabel: 标准化名称\nDomain: CM\n域描述: 合并用药域 - 记录受试者的合并用药和既往用药信息",
    "metadata":"{\"variable\": \"CMDECOD\", \"label\": \"标准化名称\", \"core\": \"可有\", \"domain\": \"CM\", \"language\": \"zh\", \"type\": \"sdtm_spec_field\", \"confidence_default\": 0.7, \"metadata_variable\": \"CMDECOD\", \"source\": \"sdtm_spec_v3.2_temp\"}",
    "variable":"CMDECOD",
    "label":"标准化名称",
    "core":"可有",
    "domain":"CM",
    "metadata_variable":"CMDECOD",
    "language":"zh",
    "confidence_default":0.7,
    "source":"sdtm_spec_v3.2_temp",
    "keywords":null,
    "common_tables":null,
    "var_description":null
  },
  {
    "chunk_id":"SDTM_SPEC::CMCAT",
    "chunk_text":"Variable: CMCAT\nLabel: 类别\nDomain: CM\n域描述: 合并用药域 - 记录受试者的合并用药和既往用药信息",
    "metadata":"{\"variable\": \"CMCAT\", \"label\": \"类别\", \"core\": \"可有\", \"domain\": \"CM\", \"language\": \"zh\", \"type\": \"sdtm_spec_field\", \"confidence_default\": 0.7, \"metadata_variable\": \"CMCAT\", \"source\": \"sdtm_spec_v3.2_temp\"}",
    "variable":"CMCAT",
    "label":"类别",
    "core":"可有",
    "domain":"CM",
    "metadata_variable":"CMCAT",
    "language":"zh",
    "confidence_default":0.7,
    "source":"sdtm_spec_v3.2_temp",
    "keywords":null,
    "common_tables":null,
    "var_description":null
  },
  {
    "chunk_id":"SDTM_SPEC::CMSCAT",
    "chunk_text":"Variable: CMSCAT\nLabel: 子类\nDomain: CM\n域描述: 合并用药域 - 记录受试者的合并用药和既往用药信息",
    "metadata":"{\"variable\": \"CMSCAT\", \"label\": \"子类\", \"core\": \"可有\", \"domain\": \"CM\", \"language\": \"zh\", \"type\": \"sdtm_spec_field\", \"confidence_default\": 0.7, \"metadata_variable\": \"CMSCAT\", \"source\": \"sdtm_spec_v3.2_temp\"}",
    "variable":"CMSCAT",
    "label":"子类",
    "core":"可有",
    "domain":"CM",
    "metadata_variable":"CMSCAT",
    "language":"zh",
    "confidence_default":0.7,
    "source":"sdtm_spec_v3.2_temp",
    "keywords":null,
    "common_tables":null,
    "var_description":null
  },
  {
    "chunk_id":"SDTM_SPEC::CMPRESP",
    "chunk_text":"Variable: CMPRESP\nLabel: 预设\nDomain: CM\n域描述: 合并用药域 - 记录受试者的合并用药和既往用药信息",
    "metadata":"{\"variable\": \"CMPRESP\", \"label\": \"预设\", \"core\": \"可有\", \"domain\": \"CM\", \"language\": \"zh\", \"type\": \"sdtm_spec_field\", \"confidence_default\": 0.7, \"metadata_variable\": \"CMPRESP\", \"source\": \"sdtm_spec_v3.2_temp\"}",
    "variable":"CMPRESP",
    "label":"预设",
    "core":"可有",
    "domain":"CM",
    "metadata_variable":"CMPRESP",
    "language":"zh",
    "confidence_default":0.7,
    "source":"sdtm_spec_v3.2_temp",
    "keywords":null,
    "common_tables":null,
    "var_description":null
  },
  {
    "chunk_id":"SDTM_SPEC::CMOCCUR",
    "chunk_text":"Variable: CMOCCUR\nLabel: 是否发生\nDomain: CM\n域描述: 合并用药域 - 记录受试者的合并用药和既往用药信息",
    "metadata":"{\"variable\": \"CMOCCUR\", \"label\": \"是否发生\", \"core\": \"可有\", \"domain\": \"CM\", \"language\": \"zh\", \"type\": \"sdtm_spec_field\", \"confidence_default\": 0.7, \"metadata_variable\": \"CMOCCUR\", \"source\": \"sdtm_spec_v3.2_temp\"}",
    "variable":"CMOCCUR",
    "label":"是否发生",
    "core":"可有",
    "domain":"CM",
    "metadata_variable":"CMOCCUR",
    "language":"zh",
    "confidence_default":0.7,
    "source":"sdtm_spec_v3.2_temp",
    "keywords":null,
    "common_tables":null,
    "var_description":null
  },
  {
    "chunk_id":"SDTM_SPEC::CMSTAT",
    "chunk_text":"Variable: CMSTAT\nLabel: 未做状态\nDomain: CM\n域描述: 合并用药域 - 记录受试者的合并用药和既往用药信息",
    "metadata":"{\"variable\": \"CMSTAT\", \"label\": \"未做状态\", \"core\": \"可有\", \"domain\": \"CM\", \"language\": \"zh\", \"type\": \"sdtm_spec_field\", \"confidence_default\": 0.7, \"metadata_variable\": \"CMSTAT\", \"source\": \"sdtm_spec_v3.2_temp\"}",
    "variable":"CMSTAT",
    "label":"未做状态",
    "core":"可有",
    "domain":"CM",
    "metadata_variable":"CMSTAT",
    "language":"zh",
    "confidence_default":0.7,
    "source":"sdtm_spec_v3.2_temp",
    "keywords":null,
    "common_tables":null,
    "var_description":null
  },
  {
    "chunk_id":"SDTM_SPEC::CMREASND",
    "chunk_text":"Variable: CMREASND\nLabel: 未做原因\nDomain: CM\n域描述: 合并用药域 - 记录受试者的合并用药和既往用药信息",
    "metadata":"{\"variable\": \"CMREASND\", \"label\": \"未做原因\", \"core\": \"可有\", \"domain\": \"CM\", \"language\": \"zh\", \"type\": \"sdtm_spec_field\", \"confidence_default\": 0.7, \"metadata_variable\": \"CMREASND\", \"source\": \"sdtm_spec_v3.2_temp\"}",
    "variable":"CMREASND",
    "label":"未做原因",
    "core":"可有",
    "domain":"CM",
    "metadata_variable":"CMREASND",
    "language":"zh",
    "confidence_default":0.7,
    "source":"sdtm_spec_v3.2_temp",
    "keywords":null,
    "common_tables":null,
    "var_description":null
  },
  {
    "chunk_id":"SDTM_SPEC::CMINDC",
    "chunk_text":"Variable: CMINDC\nLabel: 适应症\nDomain: CM\n域描述: 合并用药域 - 记录受试者的合并用药和既往用药信息\n变量描述: 合并用药的适应症或用药原因\n关键词: 用药原因, 适应症, 用药指征\n常见表名: 既往及合并用药, 合并用药",
    "metadata":"{\"variable\": \"CMINDC\", \"label\": \"适应症\", \"core\": \"可有\", \"domain\": \"CM\", \"language\": \"zh\", \"type\": \"sdtm_spec_field\", \"confidence_default\": 0.7, \"metadata_variable\": \"CMINDC\", \"source\": \"sdtm_spec_v3.2_temp\"}",
    "variable":"CMINDC",
    "label":"适应症",
    "core":"可有",
    "domain":"CM",
    "metadata_variable":"CMINDC",
    "language":"zh",
    "confidence_default":0.7,
    "source":"sdtm_spec_v3.2_temp",
    "keywords":[
      "用药原因",
      "适应症",
      "用药指征"
    ],
    "common_tables":[
      "既往及合并用药",
      "合并用药"
    ],
    "var_description":"合并用药的适应症或用药原因"
  },
  {
    "chunk_id":"SDTM_SPEC::CMCLAS",
    "chunk_text":"Variable: CMCLAS\nLabel: 归类\nDomain: CM\n域描述: 合并用药域 - 记录受试者的合并用药和既往用药信息",
    "metadata":"{\"variable\": \"CMCLAS\", \"label\": \"归类\", \"core\": \"可有\", \"domain\": \"CM\", \"language\": \"zh\", \"type\": \"sdtm_spec_field\", \"confidence_default\": 0.7, \"metadata_variable\": \"CMCLAS\", \"source\": \"sdtm_spec_v3.2_temp\"}",
    "variable":"CMCLAS",
    "label":"归类",
    "core":"可有",
    "domain":"CM",
    "metadata_variable":"CMCLAS",
    "language":"zh",
    "confidence_default":0.7,
    "source":"sdtm_spec_v3.2_temp",
    "keywords":null,
    "common_tables":null,
    "var_description":null
  },
  {
    "chunk_id":"SDTM_SPEC::CMCLASCD",
    "chunk_text":"Variable: CMCLASCD\nLabel: 归类编码\nDomain: CM\n域描述: 合并用药域 - 记录受试者的合并用药和既往用药信息",
    "metadata":"{\"variable\": \"CMCLASCD\", \"label\": \"归类编码\", \"core\": \"可有\", \"domain\": \"CM\", \"language\": \"zh\", \"type\": \"sdtm_spec_field\", \"confidence_default\": 0.7, \"metadata_variable\": \"CMCLASCD\", \"source\": \"sdtm_spec_v3.2_temp\"}",
    "variable":"CMCLASCD",
    "label":"归类编码",
    "core":"可有",
    "domain":"CM",
    "metadata_variable":"CMCLASCD",
    "language":"zh",
    "confidence_default":0.7,
    "source":"sdtm_spec_v3.2_temp",
    "keywords":null,
    "common_tables":null,
    "var_description":null
  },
  {
    "chunk_id":"SDTM_SPEC::CMDOSE",
    "chunk_text":"Variable: CMDOSE\nLabel: 单次剂量\nDomain: CM\n域描述: 合并用药域 - 记录受试者的合并用药和既往用药信息\n变量描述: 合并用药的剂量数值\n关键词: 剂量, 用药剂量, 给药剂量, 药物剂量\n常见表名: 既往及合并用药, 合并用药, 药物治疗史",
    "metadata":"{\"variable\": \"CMDOSE\", \"label\": \"单次剂量\", \"core\": \"可有\", \"domain\": \"CM\", \"language\": \"zh\", \"type\": \"sdtm_spec_field\", \"confidence_default\": 0.7, \"metadata_variable\": \"CMDOSE\", \"source\": \"sdtm_spec_v3.2_temp\"}",
    "variable":"CMDOSE",
    "label":"单次剂量",
    "core":"可有",
    "domain":"CM",
    "metadata_variable":"CMDOSE",
    "language":"zh",
    "confidence_default":0.7,
    "source":"sdtm_spec_v3.2_temp",
    "keywords":[
      "剂量",
      "用药剂量",
      "给药剂量",
      "药物剂量"
    ],
    "common_tables":[
      "既往及合并用药",
      "合并用药",
      "药物治疗史"
    ],
    "var_description":"合并用药的剂量数值"
  },
  {
    "chunk_id":"SDTM_SPEC::CMDOSTXT",
    "chunk_text":"Variable: CMDOSTXT\nLabel: 单次剂量描述\nDomain: CM\n域描述: 合并用药域 - 记录受试者的合并用药和既往用药信息",
    "metadata":"{\"variable\": \"CMDOSTXT\", \"label\": \"单次剂量描述\", \"core\": \"可有\", \"domain\": \"CM\", \"language\": \"zh\", \"type\": \"sdtm_spec_field\", \"confidence_default\": 0.7, \"metadata_variable\": \"CMDOSTXT\", \"source\": \"sdtm_spec_v3.2_temp\"}",
    "variable":"CMDOSTXT",
    "label":"单次剂量描述",
    "core":"可有",
    "domain":"CM",
    "metadata_variable":"CMDOSTXT",
    "language":"zh",
    "confidence_default":0.7,
    "source":"sdtm_spec_v3.2_temp",
    "keywords":null,
    "common_tables":null,
    "var_description":null
  },
  {
    "chunk_id":"SDTM_SPEC::CMDOSU",
    "chunk_text":"Variable: CMDOSU\nLabel: 剂量单位\nDomain: CM\n域描述: 合并用药域 - 记录受试者的合并用药和既往用药信息\n变量描述: 合并用药的剂量单位\n关键词: 剂量单位, 用药单位, 给药单位\n常见表名: 既往及合并用药, 合并用药",
    "metadata":"{\"variable\": \"CMDOSU\", \"label\": \"剂量单位\", \"core\": \"可有\", \"domain\": \"CM\", \"language\": \"zh\", \"type\": \"sdtm_spec_field\", \"confidence_default\": 0.7, \"metadata_variable\": \"CMDOSU\", \"source\": \"sdtm_spec_v3.2_temp\"}",
    "variable":"CMDOSU",
    "label":"剂量单位",
    "core":"可有",
    "domain":"CM",
    "metadata_variable":"CMDOSU",
    "language":"zh",
    "confidence_default":0.7,
    "source":"sdtm_spec_v3.2_temp",
    "keywords":[
      "剂量单位",
      "用药单位",
      "给药单位"
    ],
    "common_tables":[
      "既往及合并用药",
      "合并用药"
    ],
    "var_description":"合并用药的剂量单位"
  },
  {
    "chunk_id":"SDTM_SPEC::CMDOSFRM",
    "chunk_text":"Variable: CMDOSFRM\nLabel: 剂型\nDomain: CM\n域描述: 合并用药域 - 记录受试者的合并用药和既往用药信息",
    "metadata":"{\"variable\": \"CMDOSFRM\", \"label\": \"剂型\", \"core\": \"可有\", \"domain\": \"CM\", \"language\": \"zh\", \"type\": \"sdtm_spec_field\", \"confidence_default\": 0.7, \"metadata_variable\": \"CMDOSFRM\", \"source\": \"sdtm_spec_v3.2_temp\"}",
    "variable":"CMDOSFRM",
    "label":"剂型",
    "core":"可有",
    "domain":"CM",
    "metadata_variable":"CMDOSFRM",
    "language":"zh",
    "confidence_default":0.7,
    "source":"sdtm_spec_v3.2_temp",
    "keywords":null,
    "common_tables":null,
    "var_description":null
  },
  {
    "chunk_id":"SDTM_SPEC::CMDOSFRQ",
    "chunk_text":"Variable: CMDOSFRQ\nLabel: 频率\nDomain: CM\n域描述: 合并用药域 - 记录受试者的合并用药和既往用药信息",
    "metadata":"{\"variable\": \"CMDOSFRQ\", \"label\": \"频率\", \"core\": \"可有\", \"domain\": \"CM\", \"language\": \"zh\", \"type\": \"sdtm_spec_field\", \"confidence_default\": 0.7, \"metadata_variable\": \"CMDOSFRQ\", \"source\": \"sdtm_spec_v3.2_temp\"}",
    "variable":"CMDOSFRQ",
    "label":"频率",
    "core":"可有",
    "domain":"CM",
    "metadata_variable":"CMDOSFRQ",
    "language":"zh",
    "confidence_default":0.7,
    "source":"sdtm_spec_v3.2_temp",
    "keywords":null,
    "common_tables":null,
    "var_description":null
  },
  {
    "chunk_id":"SDTM_SPEC::CMDOSTOT",
    "chunk_text":"Variable: CMDOSTOT\nLabel: 每日总剂量\nDomain: CM\n域描述: 合并用药域 - 记录受试者的合并用药和既往用药信息",
    "metadata":"{\"variable\": \"CMDOSTOT\", \"label\": \"每日总剂量\", \"core\": \"可有\", \"domain\": \"CM\", \"language\": \"zh\", \"type\": \"sdtm_spec_field\", \"confidence_default\": 0.7, \"metadata_variable\": \"CMDOSTOT\", \"source\": \"sdtm_spec_v3.2_temp\"}",
    "variable":"CMDOSTOT",
    "label":"每日总剂量",
    "core":"可有",
    "domain":"CM",
    "metadata_variable":"CMDOSTOT",
    "language":"zh",
    "confidence_default":0.7,
    "source":"sdtm_spec_v3.2_temp",
    "keywords":null,
    "common_tables":null,
    "var_description":null
  },
  {
    "chunk_id":"SDTM_SPEC::CMDOSRGM",
    "chunk_text":"Variable: CMDOSRGM\nLabel: 计划给药方案\nDomain: CM\n域描述: 合并用药域 - 记录受试者的合并用药和既往用药信息",
    "metadata":"{\"variable\": \"CMDOSRGM\", \"label\": \"计划给药方案\", \"core\": \"可有\", \"domain\": \"CM\", \"language\": \"zh\", \"type\": \"sdtm_spec_field\", \"confidence_default\": 0.7, \"metadata_variable\": \"CMDOSRGM\", \"source\": \"sdtm_spec_v3.2_temp\"}",
    "variable":"CMDOSRGM",
    "label":"计划给药方案",
    "core":"可有",
    "domain":"CM",
    "metadata_variable":"CMDOSRGM",
    "language":"zh",
    "confidence_default":0.7,
    "source":"sdtm_spec_v3.2_temp",
    "keywords":null,
    "common_tables":null,
    "var_description":null
  },
  {
    "chunk_id":"SDTM_SPEC::CMROUTE",
    "chunk_text":"Variable: CMROUTE\nLabel: 给药途径\nDomain: CM\n域描述: 合并用药域 - 记录受试者的合并用药和既往用药信息\n变量描述: 合并用药的给药途径\n关键词: 给药途径, 用药途径, 给药方式\n常见表名: 既往及合并用药, 合并用药",
    "metadata":"{\"variable\": \"CMROUTE\", \"label\": \"给药途径\", \"core\": \"可有\", \"domain\": \"CM\", \"language\": \"zh\", \"type\": \"sdtm_spec_field\", \"confidence_default\": 0.7, \"metadata_variable\": \"CMROUTE\", \"source\": \"sdtm_spec_v3.2_temp\"}",
    "variable":"CMROUTE",
    "label":"给药途径",
    "core":"可有",
    "domain":"CM",
    "metadata_variable":"CMROUTE",
    "language":"zh",
    "confidence_default":0.7,
    "source":"sdtm_spec_v3.2_temp",
    "keywords":[
      "给药途径",
      "用药途径",
      "给药方式"
    ],
    "common_tables":[
      "既往及合并用药",
      "合并用药"
    ],
    "var_description":"合并用药的给药途径"
  },
  {
    "chunk_id":"SDTM_SPEC::CMSTDTC",
    "chunk_text":"Variable: CMSTDTC\nLabel: 开始日期\/时间\nDomain: CM\n域描述: 合并用药域 - 记录受试者的合并用药和既往用药信息\n变量描述: 合并用药或既往用药的开始日期时间，ISO8601格式\n关键词: 药物开始日期, 用药开始日期, 给药开始日期, 治疗开始日期, 开始日期\n常见表名: 既往及合并用药, 合并用药, 药物治疗史, 化疗明细",
    "metadata":"{\"variable\": \"CMSTDTC\", \"label\": \"开始日期\/时间\", \"core\": \"可有\", \"domain\": \"CM\", \"language\": \"zh\", \"type\": \"sdtm_spec_field\", \"confidence_default\": 0.7, \"metadata_variable\": \"CMSTDTC\", \"source\": \"sdtm_spec_v3.2_temp\"}",
    "variable":"CMSTDTC",
    "label":"开始日期\/时间",
    "core":"可有",
    "domain":"CM",
    "metadata_variable":"CMSTDTC",
    "language":"zh",
    "confidence_default":0.7,
    "source":"sdtm_spec_v3.2_temp",
    "keywords":[
      "药物开始日期",
      "用药开始日期",
      "给药开始日期",
      "治疗开始日期",
      "开始日期"
    ],
    "common_tables":[
      "既往及合并用药",
      "合并用药",
      "药物治疗史",
      "化疗明细"
    ],
    "var_description":"合并用药或既往用药的开始日期时间，ISO8601格式"
  },
  {
    "chunk_id":"SDTM_SPEC::CMENDTC",
    "chunk_text":"Variable: CMENDTC\nLabel: 结束日期\/时间\nDomain: CM\n域描述: 合并用药域 - 记录受试者的合并用药和既往用药信息\n变量描述: 合并用药或既往用药的结束日期时间，ISO8601格式\n关键词: 药物结束日期, 用药结束日期, 给药结束日期, 治疗结束日期, 停药日期, 结束日期\n常见表名: 既往及合并用药, 合并用药, 药物治疗史, 化疗明细",
    "metadata":"{\"variable\": \"CMENDTC\", \"label\": \"结束日期\/时间\", \"core\": \"可有\", \"domain\": \"CM\", \"language\": \"zh\", \"type\": \"sdtm_spec_field\", \"confidence_default\": 0.7, \"metadata_variable\": \"CMENDTC\", \"source\": \"sdtm_spec_v3.2_temp\"}",
    "variable":"CMENDTC",
    "label":"结束日期\/时间",
    "core":"可有",
    "domain":"CM",
    "metadata_variable":"CMENDTC",
    "language":"zh",
    "confidence_default":0.7,
    "source":"sdtm_spec_v3.2_temp",
    "keywords":[
      "药物结束日期",
      "用药结束日期",
      "给药结束日期",
      "治疗结束日期",
      "停药日期",
      "结束日期"
    ],
    "common_tables":[
      "既往及合并用药",
      "合并用药",
      "药物治疗史",
      "化疗明细"
    ],
    "var_description":"合并用药或既往用药的结束日期时间，ISO8601格式"
  },
  {
    "chunk_id":"SDTM_SPEC::CMSTDY",
    "chunk_text":"Variable: CMSTDY\nLabel: 开始日\nDomain: CM\n域描述: 合并用药域 - 记录受试者的合并用药和既往用药信息",
    "metadata":"{\"variable\": \"CMSTDY\", \"label\": \"开始日\", \"core\": \"可有\", \"domain\": \"CM\", \"language\": \"zh\", \"type\": \"sdtm_spec_field\", \"confidence_default\": 0.7, \"metadata_variable\": \"CMSTDY\", \"source\": \"sdtm_spec_v3.2_temp\"}",
    "variable":"CMSTDY",
    "label":"开始日",
    "core":"可有",
    "domain":"CM",
    "metadata_variable":"CMSTDY",
    "language":"zh",
    "confidence_default":0.7,
    "source":"sdtm_spec_v3.2_temp",
    "keywords":null,
    "common_tables":null,
    "var_description":null
  },
  {
    "chunk_id":"SDTM_SPEC::CMENDY",
    "chunk_text":"Variable: CMENDY\nLabel: 结束日\nDomain: CM\n域描述: 合并用药域 - 记录受试者的合并用药和既往用药信息",
    "metadata":"{\"variable\": \"CMENDY\", \"label\": \"结束日\", \"core\": \"可有\", \"domain\": \"CM\", \"language\": \"zh\", \"type\": \"sdtm_spec_field\", \"confidence_default\": 0.7, \"metadata_variable\": \"CMENDY\", \"source\": \"sdtm_spec_v3.2_temp\"}",
    "variable":"CMENDY",
    "label":"结束日",
    "core":"可有",
    "domain":"CM",
    "metadata_variable":"CMENDY",
    "language":"zh",
    "confidence_default":0.7,
    "source":"sdtm_spec_v3.2_temp",
    "keywords":null,
    "common_tables":null,
    "var_description":null
  },
  {
    "chunk_id":"SDTM_SPEC::CMDUR",
    "chunk_text":"Variable: CMDUR\nLabel: 持续时间\nDomain: CM\n域描述: 合并用药域 - 记录受试者的合并用药和既往用药信息",
    "metadata":"{\"variable\": \"CMDUR\", \"label\": \"持续时间\", \"core\": \"可有\", \"domain\": \"CM\", \"language\": \"zh\", \"type\": \"sdtm_spec_field\", \"confidence_default\": 0.7, \"metadata_variable\": \"CMDUR\", \"source\": \"sdtm_spec_v3.2_temp\"}",
    "variable":"CMDUR",
    "label":"持续时间",
    "core":"可有",
    "domain":"CM",
    "metadata_variable":"CMDUR",
    "language":"zh",
    "confidence_default":0.7,
    "source":"sdtm_spec_v3.2_temp",
    "keywords":null,
    "common_tables":null,
    "var_description":null
  },
  {
    "chunk_id":"SDTM_SPEC::CMSTRF",
    "chunk_text":"Variable: CMSTRF\nLabel: 开始时间-相对参照区间\nDomain: CM\n域描述: 合并用药域 - 记录受试者的合并用药和既往用药信息",
    "metadata":"{\"variable\": \"CMSTRF\", \"label\": \"开始时间-相对参照区间\", \"core\": \"可有\", \"domain\": \"CM\", \"language\": \"zh\", \"type\": \"sdtm_spec_field\", \"confidence_default\": 0.7, \"metadata_variable\": \"CMSTRF\", \"source\": \"sdtm_spec_v3.2_temp\"}",
    "variable":"CMSTRF",
    "label":"开始时间-相对参照区间",
    "core":"可有",
    "domain":"CM",
    "metadata_variable":"CMSTRF",
    "language":"zh",
    "confidence_default":0.7,
    "source":"sdtm_spec_v3.2_temp",
    "keywords":null,
    "common_tables":null,
    "var_description":null
  },
  {
    "chunk_id":"SDTM_SPEC::CMENRF",
    "chunk_text":"Variable: CMENRF\nLabel: 结束时间-相对参照区间\nDomain: CM\n域描述: 合并用药域 - 记录受试者的合并用药和既往用药信息",
    "metadata":"{\"variable\": \"CMENRF\", \"label\": \"结束时间-相对参照区间\", \"core\": \"可有\", \"domain\": \"CM\", \"language\": \"zh\", \"type\": \"sdtm_spec_field\", \"confidence_default\": 0.7, \"metadata_variable\": \"CMENRF\", \"source\": \"sdtm_spec_v3.2_temp\"}",
    "variable":"CMENRF",
    "label":"结束时间-相对参照区间",
    "core":"可有",
    "domain":"CM",
    "metadata_variable":"CMENRF",
    "language":"zh",
    "confidence_default":0.7,
    "source":"sdtm_spec_v3.2_temp",
    "keywords":null,
    "common_tables":null,
    "var_description":null
  },
  {
    "chunk_id":"SDTM_SPEC::CMSTRTPT",
    "chunk_text":"Variable: CMSTRTPT\nLabel: 开始时间-相对参照时点\nDomain: CM\n域描述: 合并用药域 - 记录受试者的合并用药和既往用药信息",
    "metadata":"{\"variable\": \"CMSTRTPT\", \"label\": \"开始时间-相对参照时点\", \"core\": \"可有\", \"domain\": \"CM\", \"language\": \"zh\", \"type\": \"sdtm_spec_field\", \"confidence_default\": 0.7, \"metadata_variable\": \"CMSTRTPT\", \"source\": \"sdtm_spec_v3.2_temp\"}",
    "variable":"CMSTRTPT",
    "label":"开始时间-相对参照时点",
    "core":"可有",
    "domain":"CM",
    "metadata_variable":"CMSTRTPT",
    "language":"zh",
    "confidence_default":0.7,
    "source":"sdtm_spec_v3.2_temp",
    "keywords":null,
    "common_tables":null,
    "var_description":null
  },
  {
    "chunk_id":"SDTM_SPEC::CMSTTPT",
    "chunk_text":"Variable: CMSTTPT\nLabel: 开始时间的参照时点\nDomain: CM\n域描述: 合并用药域 - 记录受试者的合并用药和既往用药信息",
    "metadata":"{\"variable\": \"CMSTTPT\", \"label\": \"开始时间的参照时点\", \"core\": \"可有\", \"domain\": \"CM\", \"language\": \"zh\", \"type\": \"sdtm_spec_field\", \"confidence_default\": 0.7, \"metadata_variable\": \"CMSTTPT\", \"source\": \"sdtm_spec_v3.2_temp\"}",
    "variable":"CMSTTPT",
    "label":"开始时间的参照时点",
    "core":"可有",
    "domain":"CM",
    "metadata_variable":"CMSTTPT",
    "language":"zh",
    "confidence_default":0.7,
    "source":"sdtm_spec_v3.2_temp",
    "keywords":null,
    "common_tables":null,
    "var_description":null
  },
  {
    "chunk_id":"SDTM_SPEC::CMENRTPT",
    "chunk_text":"Variable: CMENRTPT\nLabel: 结束时间-相对参照时点\nDomain: CM\n域描述: 合并用药域 - 记录受试者的合并用药和既往用药信息",
    "metadata":"{\"variable\": \"CMENRTPT\", \"label\": \"结束时间-相对参照时点\", \"core\": \"可有\", \"domain\": \"CM\", \"language\": \"zh\", \"type\": \"sdtm_spec_field\", \"confidence_default\": 0.7, \"metadata_variable\": \"CMENRTPT\", \"source\": \"sdtm_spec_v3.2_temp\"}",
    "variable":"CMENRTPT",
    "label":"结束时间-相对参照时点",
    "core":"可有",
    "domain":"CM",
    "metadata_variable":"CMENRTPT",
    "language":"zh",
    "confidence_default":0.7,
    "source":"sdtm_spec_v3.2_temp",
    "keywords":null,
    "common_tables":null,
    "var_description":null
  },
  {
    "chunk_id":"SDTM_SPEC::CMENTPT",
    "chunk_text":"Variable: CMENTPT\nLabel: 结束时间的参照时点\nDomain: CM\n域描述: 合并用药域 - 记录受试者的合并用药和既往用药信息",
    "metadata":"{\"variable\": \"CMENTPT\", \"label\": \"结束时间的参照时点\", \"core\": \"可有\", \"domain\": \"CM\", \"language\": \"zh\", \"type\": \"sdtm_spec_field\", \"confidence_default\": 0.7, \"metadata_variable\": \"CMENTPT\", \"source\": \"sdtm_spec_v3.2_temp\"}",
    "variable":"CMENTPT",
    "label":"结束时间的参照时点",
    "core":"可有",
    "domain":"CM",
    "metadata_variable":"CMENTPT",
    "language":"zh",
    "confidence_default":0.7,
    "source":"sdtm_spec_v3.2_temp",
    "keywords":null,
    "common_tables":null,
    "var_description":null
  },
  {
    "chunk_id":"SDTM_SPEC::STUDYID",
    "chunk_text":"Variable: STUDYID\nLabel: 研究标识符\nDomain: CO",
    "metadata":"{\"variable\": \"STUDYID\", \"label\": \"研究标识符\", \"core\": \"必需\", \"domain\": \"CO\", \"language\": \"zh\", \"type\": \"sdtm_spec_field\", \"confidence_default\": 0.7, \"metadata_variable\": \"STUDYID\", \"source\": \"sdtm_spec_v3.2_temp\"}",
    "variable":"STUDYID",
    "label":"研究标识符",
    "core":"必需",
    "domain":"CO",
    "metadata_variable":"STUDYID",
    "language":"zh",
    "confidence_default":0.7,
    "source":"sdtm_spec_v3.2_temp",
    "keywords":null,
    "common_tables":null,
    "var_description":null
  },
  {
    "chunk_id":"SDTM_SPEC::DOMAIN",
    "chunk_text":"Variable: DOMAIN\nLabel: 域名缩写\nDomain: CO",
    "metadata":"{\"variable\": \"DOMAIN\", \"label\": \"域名缩写\", \"core\": \"必需\", \"domain\": \"CO\", \"language\": \"zh\", \"type\": \"sdtm_spec_field\", \"confidence_default\": 0.7, \"metadata_variable\": \"DOMAIN\", \"source\": \"sdtm_spec_v3.2_temp\"}",
    "variable":"DOMAIN",
    "label":"域名缩写",
    "core":"必需",
    "domain":"CO",
    "metadata_variable":"DOMAIN",
    "language":"zh",
    "confidence_default":0.7,
    "source":"sdtm_spec_v3.2_temp",
    "keywords":null,
    "common_tables":null,
    "var_description":null
  },
  {
    "chunk_id":"SDTM_SPEC::RDOMAIN",
    "chunk_text":"Variable: RDOMAIN\nLabel: 关联域名缩写\nDomain: CO",
    "metadata":"{\"variable\": \"RDOMAIN\", \"label\": \"关联域名缩写\", \"core\": \"可有\", \"domain\": \"CO\", \"language\": \"zh\", \"type\": \"sdtm_spec_field\", \"confidence_default\": 0.7, \"metadata_variable\": \"RDOMAIN\", \"source\": \"sdtm_spec_v3.2_temp\"}",
    "variable":"RDOMAIN",
    "label":"关联域名缩写",
    "core":"可有",
    "domain":"CO",
    "metadata_variable":"RDOMAIN",
    "language":"zh",
    "confidence_default":0.7,
    "source":"sdtm_spec_v3.2_temp",
    "keywords":null,
    "common_tables":null,
    "var_description":null
  },
  {
    "chunk_id":"SDTM_SPEC::USUBJID",
    "chunk_text":"Variable: USUBJID\nLabel: 受试者唯一标识符\nDomain: CO",
    "metadata":"{\"variable\": \"USUBJID\", \"label\": \"受试者唯一标识符\", \"core\": \"必需\", \"domain\": \"CO\", \"language\": \"zh\", \"type\": \"sdtm_spec_field\", \"confidence_default\": 0.7, \"metadata_variable\": \"USUBJID\", \"source\": \"sdtm_spec_v3.2_temp\"}",
    "variable":"USUBJID",
    "label":"受试者唯一标识符",
    "core":"必需",
    "domain":"CO",
    "metadata_variable":"USUBJID",
    "language":"zh",
    "confidence_default":0.7,
    "source":"sdtm_spec_v3.2_temp",
    "keywords":null,
    "common_tables":null,
    "var_description":null
  },
  {
    "chunk_id":"SDTM_SPEC::COSEQ",
    "chunk_text":"Variable: COSEQ\nLabel: 序号\nDomain: CO",
    "metadata":"{\"variable\": \"COSEQ\", \"label\": \"序号\", \"core\": \"必需\", \"domain\": \"CO\", \"language\": \"zh\", \"type\": \"sdtm_spec_field\", \"confidence_default\": 0.7, \"metadata_variable\": \"COSEQ\", \"source\": \"sdtm_spec_v3.2_temp\"}",
    "variable":"COSEQ",
    "label":"序号",
    "core":"必需",
    "domain":"CO",
    "metadata_variable":"COSEQ",
    "language":"zh",
    "confidence_default":0.7,
    "source":"sdtm_spec_v3.2_temp",
    "keywords":null,
    "common_tables":null,
    "var_description":null
  },
  {
    "chunk_id":"SDTM_SPEC::IDVAR",
    "chunk_text":"Variable: IDVAR\nLabel: 标识变量\nDomain: CO",
    "metadata":"{\"variable\": \"IDVAR\", \"label\": \"标识变量\", \"core\": \"可有\", \"domain\": \"CO\", \"language\": \"zh\", \"type\": \"sdtm_spec_field\", \"confidence_default\": 0.7, \"metadata_variable\": \"IDVAR\", \"source\": \"sdtm_spec_v3.2_temp\"}",
    "variable":"IDVAR",
    "label":"标识变量",
    "core":"可有",
    "domain":"CO",
    "metadata_variable":"IDVAR",
    "language":"zh",
    "confidence_default":0.7,
    "source":"sdtm_spec_v3.2_temp",
    "keywords":null,
    "common_tables":null,
    "var_description":null
  },
  {
    "chunk_id":"SDTM_SPEC::IDVARVAL",
    "chunk_text":"Variable: IDVARVAL\nLabel: 标识变量值\nDomain: CO",
    "metadata":"{\"variable\": \"IDVARVAL\", \"label\": \"标识变量值\", \"core\": \"可有\", \"domain\": \"CO\", \"language\": \"zh\", \"type\": \"sdtm_spec_field\", \"confidence_default\": 0.7, \"metadata_variable\": \"IDVARVAL\", \"source\": \"sdtm_spec_v3.2_temp\"}",
    "variable":"IDVARVAL",
    "label":"标识变量值",
    "core":"可有",
    "domain":"CO",
    "metadata_variable":"IDVARVAL",
    "language":"zh",
    "confidence_default":0.7,
    "source":"sdtm_spec_v3.2_temp",
    "keywords":null,
    "common_tables":null,
    "var_description":null
  },
  {
    "chunk_id":"SDTM_SPEC::COREF",
    "chunk_text":"Variable: COREF\nLabel: 备注参照\nDomain: CO",
    "metadata":"{\"variable\": \"COREF\", \"label\": \"备注参照\", \"core\": \"可有\", \"domain\": \"CO\", \"language\": \"zh\", \"type\": \"sdtm_spec_field\", \"confidence_default\": 0.7, \"metadata_variable\": \"COREF\", \"source\": \"sdtm_spec_v3.2_temp\"}",
    "variable":"COREF",
    "label":"备注参照",
    "core":"可有",
    "domain":"CO",
    "metadata_variable":"COREF",
    "language":"zh",
    "confidence_default":0.7,
    "source":"sdtm_spec_v3.2_temp",
    "keywords":null,
    "common_tables":null,
    "var_description":null
  },
  {
    "chunk_id":"SDTM_SPEC::COVAL",
    "chunk_text":"Variable: COVAL\nLabel: 备注\nDomain: CO",
    "metadata":"{\"variable\": \"COVAL\", \"label\": \"备注\", \"core\": \"必需\", \"domain\": \"CO\", \"language\": \"zh\", \"type\": \"sdtm_spec_field\", \"confidence_default\": 0.7, \"metadata_variable\": \"COVAL\", \"source\": \"sdtm_spec_v3.2_temp\"}",
    "variable":"COVAL",
    "label":"备注",
    "core":"必需",
    "domain":"CO",
    "metadata_variable":"COVAL",
    "language":"zh",
    "confidence_default":0.7,
    "source":"sdtm_spec_v3.2_temp",
    "keywords":null,
    "common_tables":null,
    "var_description":null
  },
  {
    "chunk_id":"SDTM_SPEC::COEVAL",
    "chunk_text":"Variable: COEVAL\nLabel: 评估者\nDomain: CO",
    "metadata":"{\"variable\": \"COEVAL\", \"label\": \"评估者\", \"core\": \"可有\", \"domain\": \"CO\", \"language\": \"zh\", \"type\": \"sdtm_spec_field\", \"confidence_default\": 0.7, \"metadata_variable\": \"COEVAL\", \"source\": \"sdtm_spec_v3.2_temp\"}",
    "variable":"COEVAL",
    "label":"评估者",
    "core":"可有",
    "domain":"CO",
    "metadata_variable":"COEVAL",
    "language":"zh",
    "confidence_default":0.7,
    "source":"sdtm_spec_v3.2_temp",
    "keywords":null,
    "common_tables":null,
    "var_description":null
  },
  {
    "chunk_id":"SDTM_SPEC::CODTC",
    "chunk_text":"Variable: CODTC\nLabel: 采集日期\/时间\nDomain: CO",
    "metadata":"{\"variable\": \"CODTC\", \"label\": \"采集日期\/时间\", \"core\": \"可有\", \"domain\": \"CO\", \"language\": \"zh\", \"type\": \"sdtm_spec_field\", \"confidence_default\": 0.7, \"metadata_variable\": \"CODTC\", \"source\": \"sdtm_spec_v3.2_temp\"}",
    "variable":"CODTC",
    "label":"采集日期\/时间",
    "core":"可有",
    "domain":"CO",
    "metadata_variable":"CODTC",
    "language":"zh",
    "confidence_default":0.7,
    "source":"sdtm_spec_v3.2_temp",
    "keywords":null,
    "common_tables":null,
    "var_description":null
  },
  {
    "chunk_id":"SDTM_SPEC::STUDYID",
    "chunk_text":"Variable: STUDYID\nLabel: 研究标识符\nDomain: DA",
    "metadata":"{\"variable\": \"STUDYID\", \"label\": \"研究标识符\", \"core\": \"必需\", \"domain\": \"DA\", \"language\": \"zh\", \"type\": \"sdtm_spec_field\", \"confidence_default\": 0.7, \"metadata_variable\": \"STUDYID\", \"source\": \"sdtm_spec_v3.2_temp\"}",
    "variable":"STUDYID",
    "label":"研究标识符",
    "core":"必需",
    "domain":"DA",
    "metadata_variable":"STUDYID",
    "language":"zh",
    "confidence_default":0.7,
    "source":"sdtm_spec_v3.2_temp",
    "keywords":null,
    "common_tables":null,
    "var_description":null
  },
  {
    "chunk_id":"SDTM_SPEC::DOMAIN",
    "chunk_text":"Variable: DOMAIN\nLabel: 域名缩写\nDomain: DA",
    "metadata":"{\"variable\": \"DOMAIN\", \"label\": \"域名缩写\", \"core\": \"必需\", \"domain\": \"DA\", \"language\": \"zh\", \"type\": \"sdtm_spec_field\", \"confidence_default\": 0.7, \"metadata_variable\": \"DOMAIN\", \"source\": \"sdtm_spec_v3.2_temp\"}",
    "variable":"DOMAIN",
    "label":"域名缩写",
    "core":"必需",
    "domain":"DA",
    "metadata_variable":"DOMAIN",
    "language":"zh",
    "confidence_default":0.7,
    "source":"sdtm_spec_v3.2_temp",
    "keywords":null,
    "common_tables":null,
    "var_description":null
  },
  {
    "chunk_id":"SDTM_SPEC::USUBJID",
    "chunk_text":"Variable: USUBJID\nLabel: 受试者唯一标识符\nDomain: DA",
    "metadata":"{\"variable\": \"USUBJID\", \"label\": \"受试者唯一标识符\", \"core\": \"必需\", \"domain\": \"DA\", \"language\": \"zh\", \"type\": \"sdtm_spec_field\", \"confidence_default\": 0.7, \"metadata_variable\": \"USUBJID\", \"source\": \"sdtm_spec_v3.2_temp\"}",
    "variable":"USUBJID",
    "label":"受试者唯一标识符",
    "core":"必需",
    "domain":"DA",
    "metadata_variable":"USUBJID",
    "language":"zh",
    "confidence_default":0.7,
    "source":"sdtm_spec_v3.2_temp",
    "keywords":null,
    "common_tables":null,
    "var_description":null
  },
  {
    "chunk_id":"SDTM_SPEC::DASEQ",
    "chunk_text":"Variable: DASEQ\nLabel: 序号\nDomain: DA",
    "metadata":"{\"variable\": \"DASEQ\", \"label\": \"序号\", \"core\": \"必需\", \"domain\": \"DA\", \"language\": \"zh\", \"type\": \"sdtm_spec_field\", \"confidence_default\": 0.7, \"metadata_variable\": \"DASEQ\", \"source\": \"sdtm_spec_v3.2_temp\"}",
    "variable":"DASEQ",
    "label":"序号",
    "core":"必需",
    "domain":"DA",
    "metadata_variable":"DASEQ",
    "language":"zh",
    "confidence_default":0.7,
    "source":"sdtm_spec_v3.2_temp",
    "keywords":null,
    "common_tables":null,
    "var_description":null
  },
  {
    "chunk_id":"SDTM_SPEC::DAGRPID",
    "chunk_text":"Variable: DAGRPID\nLabel: 组合ID\nDomain: DA",
    "metadata":"{\"variable\": \"DAGRPID\", \"label\": \"组合ID\", \"core\": \"可有\", \"domain\": \"DA\", \"language\": \"zh\", \"type\": \"sdtm_spec_field\", \"confidence_default\": 0.7, \"metadata_variable\": \"DAGRPID\", \"source\": \"sdtm_spec_v3.2_temp\"}",
    "variable":"DAGRPID",
    "label":"组合ID",
    "core":"可有",
    "domain":"DA",
    "metadata_variable":"DAGRPID",
    "language":"zh",
    "confidence_default":0.7,
    "source":"sdtm_spec_v3.2_temp",
    "keywords":null,
    "common_tables":null,
    "var_description":null
  },
  {
    "chunk_id":"SDTM_SPEC::DAREFID",
    "chunk_text":"Variable: DAREFID\nLabel: 参考ID\nDomain: DA",
    "metadata":"{\"variable\": \"DAREFID\", \"label\": \"参考ID\", \"core\": \"可有\", \"domain\": \"DA\", \"language\": \"zh\", \"type\": \"sdtm_spec_field\", \"confidence_default\": 0.7, \"metadata_variable\": \"DAREFID\", \"source\": \"sdtm_spec_v3.2_temp\"}",
    "variable":"DAREFID",
    "label":"参考ID",
    "core":"可有",
    "domain":"DA",
    "metadata_variable":"DAREFID",
    "language":"zh",
    "confidence_default":0.7,
    "source":"sdtm_spec_v3.2_temp",
    "keywords":null,
    "common_tables":null,
    "var_description":null
  },
  {
    "chunk_id":"SDTM_SPEC::DASPID",
    "chunk_text":"Variable: DASPID\nLabel: 自定义标识符\nDomain: DA",
    "metadata":"{\"variable\": \"DASPID\", \"label\": \"自定义标识符\", \"core\": \"可有\", \"domain\": \"DA\", \"language\": \"zh\", \"type\": \"sdtm_spec_field\", \"confidence_default\": 0.7, \"metadata_variable\": \"DASPID\", \"source\": \"sdtm_spec_v3.2_temp\"}",
    "variable":"DASPID",
    "label":"自定义标识符",
    "core":"可有",
    "domain":"DA",
    "metadata_variable":"DASPID",
    "language":"zh",
    "confidence_default":0.7,
    "source":"sdtm_spec_v3.2_temp",
    "keywords":null,
    "common_tables":null,
    "var_description":null
  },
  {
    "chunk_id":"SDTM_SPEC::DATESTCD",
    "chunk_text":"Variable: DATESTCD\nLabel: 评估项简称\nDomain: DA",
    "metadata":"{\"variable\": \"DATESTCD\", \"label\": \"评估项简称\", \"core\": \"必需\", \"domain\": \"DA\", \"language\": \"zh\", \"type\": \"sdtm_spec_field\", \"confidence_default\": 0.7, \"metadata_variable\": \"DATESTCD\", \"source\": \"sdtm_spec_v3.2_temp\"}",
    "variable":"DATESTCD",
    "label":"评估项简称",
    "core":"必需",
    "domain":"DA",
    "metadata_variable":"DATESTCD",
    "language":"zh",
    "confidence_default":0.7,
    "source":"sdtm_spec_v3.2_temp",
    "keywords":null,
    "common_tables":null,
    "var_description":null
  },
  {
    "chunk_id":"SDTM_SPEC::DATEST",
    "chunk_text":"Variable: DATEST\nLabel: 评估项名称\nDomain: DA",
    "metadata":"{\"variable\": \"DATEST\", \"label\": \"评估项名称\", \"core\": \"必需\", \"domain\": \"DA\", \"language\": \"zh\", \"type\": \"sdtm_spec_field\", \"confidence_default\": 0.7, \"metadata_variable\": \"DATEST\", \"source\": \"sdtm_spec_v3.2_temp\"}",
    "variable":"DATEST",
    "label":"评估项名称",
    "core":"必需",
    "domain":"DA",
    "metadata_variable":"DATEST",
    "language":"zh",
    "confidence_default":0.7,
    "source":"sdtm_spec_v3.2_temp",
    "keywords":null,
    "common_tables":null,
    "var_description":null
  },
  {
    "chunk_id":"SDTM_SPEC::DACAT",
    "chunk_text":"Variable: DACAT\nLabel: 类别\nDomain: DA",
    "metadata":"{\"variable\": \"DACAT\", \"label\": \"类别\", \"core\": \"可有\", \"domain\": \"DA\", \"language\": \"zh\", \"type\": \"sdtm_spec_field\", \"confidence_default\": 0.7, \"metadata_variable\": \"DACAT\", \"source\": \"sdtm_spec_v3.2_temp\"}",
    "variable":"DACAT",
    "label":"类别",
    "core":"可有",
    "domain":"DA",
    "metadata_variable":"DACAT",
    "language":"zh",
    "confidence_default":0.7,
    "source":"sdtm_spec_v3.2_temp",
    "keywords":null,
    "common_tables":null,
    "var_description":null
  },
  {
    "chunk_id":"SDTM_SPEC::DASCAT",
    "chunk_text":"Variable: DASCAT\nLabel: 子类\nDomain: DA",
    "metadata":"{\"variable\": \"DASCAT\", \"label\": \"子类\", \"core\": \"可有\", \"domain\": \"DA\", \"language\": \"zh\", \"type\": \"sdtm_spec_field\", \"confidence_default\": 0.7, \"metadata_variable\": \"DASCAT\", \"source\": \"sdtm_spec_v3.2_temp\"}",
    "variable":"DASCAT",
    "label":"子类",
    "core":"可有",
    "domain":"DA",
    "metadata_variable":"DASCAT",
    "language":"zh",
    "confidence_default":0.7,
    "source":"sdtm_spec_v3.2_temp",
    "keywords":null,
    "common_tables":null,
    "var_description":null
  },
  {
    "chunk_id":"SDTM_SPEC::DAORRES",
    "chunk_text":"Variable: DAORRES\nLabel: 原始结果\nDomain: DA",
    "metadata":"{\"variable\": \"DAORRES\", \"label\": \"原始结果\", \"core\": \"期望\", \"domain\": \"DA\", \"language\": \"zh\", \"type\": \"sdtm_spec_field\", \"confidence_default\": 0.7, \"metadata_variable\": \"DAORRES\", \"source\": \"sdtm_spec_v3.2_temp\"}",
    "variable":"DAORRES",
    "label":"原始结果",
    "core":"期望",
    "domain":"DA",
    "metadata_variable":"DAORRES",
    "language":"zh",
    "confidence_default":0.7,
    "source":"sdtm_spec_v3.2_temp",
    "keywords":null,
    "common_tables":null,
    "var_description":null
  },
  {
    "chunk_id":"SDTM_SPEC::DAORRESU",
    "chunk_text":"Variable: DAORRESU\nLabel: 原始单位\nDomain: DA",
    "metadata":"{\"variable\": \"DAORRESU\", \"label\": \"原始单位\", \"core\": \"可有\", \"domain\": \"DA\", \"language\": \"zh\", \"type\": \"sdtm_spec_field\", \"confidence_default\": 0.7, \"metadata_variable\": \"DAORRESU\", \"source\": \"sdtm_spec_v3.2_temp\"}",
    "variable":"DAORRESU",
    "label":"原始单位",
    "core":"可有",
    "domain":"DA",
    "metadata_variable":"DAORRESU",
    "language":"zh",
    "confidence_default":0.7,
    "source":"sdtm_spec_v3.2_temp",
    "keywords":null,
    "common_tables":null,
    "var_description":null
  },
  {
    "chunk_id":"SDTM_SPEC::DASTRESC",
    "chunk_text":"Variable: DASTRESC\nLabel: 标准化结果\nDomain: DA",
    "metadata":"{\"variable\": \"DASTRESC\", \"label\": \"标准化结果\", \"core\": \"期望\", \"domain\": \"DA\", \"language\": \"zh\", \"type\": \"sdtm_spec_field\", \"confidence_default\": 0.7, \"metadata_variable\": \"DASTRESC\", \"source\": \"sdtm_spec_v3.2_temp\"}",
    "variable":"DASTRESC",
    "label":"标准化结果",
    "core":"期望",
    "domain":"DA",
    "metadata_variable":"DASTRESC",
    "language":"zh",
    "confidence_default":0.7,
    "source":"sdtm_spec_v3.2_temp",
    "keywords":null,
    "common_tables":null,
    "var_description":null
  },
  {
    "chunk_id":"SDTM_SPEC::DASTRESN",
    "chunk_text":"Variable: DASTRESN\nLabel: 标准化结果(N)\nDomain: DA",
    "metadata":"{\"variable\": \"DASTRESN\", \"label\": \"标准化结果(N)\", \"core\": \"可有\", \"domain\": \"DA\", \"language\": \"zh\", \"type\": \"sdtm_spec_field\", \"confidence_default\": 0.7, \"metadata_variable\": \"DASTRESN\", \"source\": \"sdtm_spec_v3.2_temp\"}",
    "variable":"DASTRESN",
    "label":"标准化结果(N)",
    "core":"可有",
    "domain":"DA",
    "metadata_variable":"DASTRESN",
    "language":"zh",
    "confidence_default":0.7,
    "source":"sdtm_spec_v3.2_temp",
    "keywords":null,
    "common_tables":null,
    "var_description":null
  },
  {
    "chunk_id":"SDTM_SPEC::DASTRESU",
    "chunk_text":"Variable: DASTRESU\nLabel: 标准化单位\nDomain: DA",
    "metadata":"{\"variable\": \"DASTRESU\", \"label\": \"标准化单位\", \"core\": \"可有\", \"domain\": \"DA\", \"language\": \"zh\", \"type\": \"sdtm_spec_field\", \"confidence_default\": 0.7, \"metadata_variable\": \"DASTRESU\", \"source\": \"sdtm_spec_v3.2_temp\"}",
    "variable":"DASTRESU",
    "label":"标准化单位",
    "core":"可有",
    "domain":"DA",
    "metadata_variable":"DASTRESU",
    "language":"zh",
    "confidence_default":0.7,
    "source":"sdtm_spec_v3.2_temp",
    "keywords":null,
    "common_tables":null,
    "var_description":null
  },
  {
    "chunk_id":"SDTM_SPEC::DASTAT",
    "chunk_text":"Variable: DASTAT\nLabel: 未做状态\nDomain: DA",
    "metadata":"{\"variable\": \"DASTAT\", \"label\": \"未做状态\", \"core\": \"可有\", \"domain\": \"DA\", \"language\": \"zh\", \"type\": \"sdtm_spec_field\", \"confidence_default\": 0.7, \"metadata_variable\": \"DASTAT\", \"source\": \"sdtm_spec_v3.2_temp\"}",
    "variable":"DASTAT",
    "label":"未做状态",
    "core":"可有",
    "domain":"DA",
    "metadata_variable":"DASTAT",
    "language":"zh",
    "confidence_default":0.7,
    "source":"sdtm_spec_v3.2_temp",
    "keywords":null,
    "common_tables":null,
    "var_description":null
  },
  {
    "chunk_id":"SDTM_SPEC::DAREASND",
    "chunk_text":"Variable: DAREASND\nLabel: 未做原因\nDomain: DA",
    "metadata":"{\"variable\": \"DAREASND\", \"label\": \"未做原因\", \"core\": \"可有\", \"domain\": \"DA\", \"language\": \"zh\", \"type\": \"sdtm_spec_field\", \"confidence_default\": 0.7, \"metadata_variable\": \"DAREASND\", \"source\": \"sdtm_spec_v3.2_temp\"}",
    "variable":"DAREASND",
    "label":"未做原因",
    "core":"可有",
    "domain":"DA",
    "metadata_variable":"DAREASND",
    "language":"zh",
    "confidence_default":0.7,
    "source":"sdtm_spec_v3.2_temp",
    "keywords":null,
    "common_tables":null,
    "var_description":null
  },
  {
    "chunk_id":"SDTM_SPEC::VISITNUM",
    "chunk_text":"Variable: VISITNUM\nLabel: 访视编号\nDomain: DA",
    "metadata":"{\"variable\": \"VISITNUM\", \"label\": \"访视编号\", \"core\": \"期望\", \"domain\": \"DA\", \"language\": \"zh\", \"type\": \"sdtm_spec_field\", \"confidence_default\": 0.7, \"metadata_variable\": \"VISITNUM\", \"source\": \"sdtm_spec_v3.2_temp\"}",
    "variable":"VISITNUM",
    "label":"访视编号",
    "core":"期望",
    "domain":"DA",
    "metadata_variable":"VISITNUM",
    "language":"zh",
    "confidence_default":0.7,
    "source":"sdtm_spec_v3.2_temp",
    "keywords":null,
    "common_tables":null,
    "var_description":null
  },
  {
    "chunk_id":"SDTM_SPEC::VISIT",
    "chunk_text":"Variable: VISIT\nLabel: 访视名称\nDomain: DA",
    "metadata":"{\"variable\": \"VISIT\", \"label\": \"访视名称\", \"core\": \"可有\", \"domain\": \"DA\", \"language\": \"zh\", \"type\": \"sdtm_spec_field\", \"confidence_default\": 0.7, \"metadata_variable\": \"VISIT\", \"source\": \"sdtm_spec_v3.2_temp\"}",
    "variable":"VISIT",
    "label":"访视名称",
    "core":"可有",
    "domain":"DA",
    "metadata_variable":"VISIT",
    "language":"zh",
    "confidence_default":0.7,
    "source":"sdtm_spec_v3.2_temp",
    "keywords":null,
    "common_tables":null,
    "var_description":null
  },
  {
    "chunk_id":"SDTM_SPEC::VISITDY",
    "chunk_text":"Variable: VISITDY\nLabel: 计划访视日\nDomain: DA",
    "metadata":"{\"variable\": \"VISITDY\", \"label\": \"计划访视日\", \"core\": \"可有\", \"domain\": \"DA\", \"language\": \"zh\", \"type\": \"sdtm_spec_field\", \"confidence_default\": 0.7, \"metadata_variable\": \"VISITDY\", \"source\": \"sdtm_spec_v3.2_temp\"}",
    "variable":"VISITDY",
    "label":"计划访视日",
    "core":"可有",
    "domain":"DA",
    "metadata_variable":"VISITDY",
    "language":"zh",
    "confidence_default":0.7,
    "source":"sdtm_spec_v3.2_temp",
    "keywords":null,
    "common_tables":null,
    "var_description":null
  },
  {
    "chunk_id":"SDTM_SPEC::DADTC",
    "chunk_text":"Variable: DADTC\nLabel: 采集日期\/时间\nDomain: DA",
    "metadata":"{\"variable\": \"DADTC\", \"label\": \"采集日期\/时间\", \"core\": \"期望\", \"domain\": \"DA\", \"language\": \"zh\", \"type\": \"sdtm_spec_field\", \"confidence_default\": 0.7, \"metadata_variable\": \"DADTC\", \"source\": \"sdtm_spec_v3.2_temp\"}",
    "variable":"DADTC",
    "label":"采集日期\/时间",
    "core":"期望",
    "domain":"DA",
    "metadata_variable":"DADTC",
    "language":"zh",
    "confidence_default":0.7,
    "source":"sdtm_spec_v3.2_temp",
    "keywords":null,
    "common_tables":null,
    "var_description":null
  },
  {
    "chunk_id":"SDTM_SPEC::DADY",
    "chunk_text":"Variable: DADY\nLabel: 采集日\nDomain: DA",
    "metadata":"{\"variable\": \"DADY\", \"label\": \"采集日\", \"core\": \"可有\", \"domain\": \"DA\", \"language\": \"zh\", \"type\": \"sdtm_spec_field\", \"confidence_default\": 0.7, \"metadata_variable\": \"DADY\", \"source\": \"sdtm_spec_v3.2_temp\"}",
    "variable":"DADY",
    "label":"采集日",
    "core":"可有",
    "domain":"DA",
    "metadata_variable":"DADY",
    "language":"zh",
    "confidence_default":0.7,
    "source":"sdtm_spec_v3.2_temp",
    "keywords":null,
    "common_tables":null,
    "var_description":null
  },
  {
    "chunk_id":"SDTM_SPEC::STUDYID",
    "chunk_text":"Variable: STUDYID\nLabel: 研究标识符\nDomain: DD",
    "metadata":"{\"variable\": \"STUDYID\", \"label\": \"研究标识符\", \"core\": \"必需\", \"domain\": \"DD\", \"language\": \"zh\", \"type\": \"sdtm_spec_field\", \"confidence_default\": 0.7, \"metadata_variable\": \"STUDYID\", \"source\": \"sdtm_spec_v3.2_temp\"}",
    "variable":"STUDYID",
    "label":"研究标识符",
    "core":"必需",
    "domain":"DD",
    "metadata_variable":"STUDYID",
    "language":"zh",
    "confidence_default":0.7,
    "source":"sdtm_spec_v3.2_temp",
    "keywords":null,
    "common_tables":null,
    "var_description":null
  },
  {
    "chunk_id":"SDTM_SPEC::DOMAIN",
    "chunk_text":"Variable: DOMAIN\nLabel: 域名缩写\nDomain: DD",
    "metadata":"{\"variable\": \"DOMAIN\", \"label\": \"域名缩写\", \"core\": \"必需\", \"domain\": \"DD\", \"language\": \"zh\", \"type\": \"sdtm_spec_field\", \"confidence_default\": 0.7, \"metadata_variable\": \"DOMAIN\", \"source\": \"sdtm_spec_v3.2_temp\"}",
    "variable":"DOMAIN",
    "label":"域名缩写",
    "core":"必需",
    "domain":"DD",
    "metadata_variable":"DOMAIN",
    "language":"zh",
    "confidence_default":0.7,
    "source":"sdtm_spec_v3.2_temp",
    "keywords":null,
    "common_tables":null,
    "var_description":null
  },
  {
    "chunk_id":"SDTM_SPEC::USUBJID",
    "chunk_text":"Variable: USUBJID\nLabel: 受试者唯一标识符\nDomain: DD",
    "metadata":"{\"variable\": \"USUBJID\", \"label\": \"受试者唯一标识符\", \"core\": \"必需\", \"domain\": \"DD\", \"language\": \"zh\", \"type\": \"sdtm_spec_field\", \"confidence_default\": 0.7, \"metadata_variable\": \"USUBJID\", \"source\": \"sdtm_spec_v3.2_temp\"}",
    "variable":"USUBJID",
    "label":"受试者唯一标识符",
    "core":"必需",
    "domain":"DD",
    "metadata_variable":"USUBJID",
    "language":"zh",
    "confidence_default":0.7,
    "source":"sdtm_spec_v3.2_temp",
    "keywords":null,
    "common_tables":null,
    "var_description":null
  },
  {
    "chunk_id":"SDTM_SPEC::DDSEQ",
    "chunk_text":"Variable: DDSEQ\nLabel: 序号\nDomain: DD",
    "metadata":"{\"variable\": \"DDSEQ\", \"label\": \"序号\", \"core\": \"必需\", \"domain\": \"DD\", \"language\": \"zh\", \"type\": \"sdtm_spec_field\", \"confidence_default\": 0.7, \"metadata_variable\": \"DDSEQ\", \"source\": \"sdtm_spec_v3.2_temp\"}",
    "variable":"DDSEQ",
    "label":"序号",
    "core":"必需",
    "domain":"DD",
    "metadata_variable":"DDSEQ",
    "language":"zh",
    "confidence_default":0.7,
    "source":"sdtm_spec_v3.2_temp",
    "keywords":null,
    "common_tables":null,
    "var_description":null
  },
  {
    "chunk_id":"SDTM_SPEC::DDTESTCD",
    "chunk_text":"Variable: DDTESTCD\nLabel: 评估项简称\nDomain: DD",
    "metadata":"{\"variable\": \"DDTESTCD\", \"label\": \"评估项简称\", \"core\": \"必需\", \"domain\": \"DD\", \"language\": \"zh\", \"type\": \"sdtm_spec_field\", \"confidence_default\": 0.7, \"metadata_variable\": \"DDTESTCD\", \"source\": \"sdtm_spec_v3.2_temp\"}",
    "variable":"DDTESTCD",
    "label":"评估项简称",
    "core":"必需",
    "domain":"DD",
    "metadata_variable":"DDTESTCD",
    "language":"zh",
    "confidence_default":0.7,
    "source":"sdtm_spec_v3.2_temp",
    "keywords":null,
    "common_tables":null,
    "var_description":null
  },
  {
    "chunk_id":"SDTM_SPEC::DDTEST",
    "chunk_text":"Variable: DDTEST\nLabel: 评估项名称\nDomain: DD",
    "metadata":"{\"variable\": \"DDTEST\", \"label\": \"评估项名称\", \"core\": \"必需\", \"domain\": \"DD\", \"language\": \"zh\", \"type\": \"sdtm_spec_field\", \"confidence_default\": 0.7, \"metadata_variable\": \"DDTEST\", \"source\": \"sdtm_spec_v3.2_temp\"}",
    "variable":"DDTEST",
    "label":"评估项名称",
    "core":"必需",
    "domain":"DD",
    "metadata_variable":"DDTEST",
    "language":"zh",
    "confidence_default":0.7,
    "source":"sdtm_spec_v3.2_temp",
    "keywords":null,
    "common_tables":null,
    "var_description":null
  },
  {
    "chunk_id":"SDTM_SPEC::DDORRES",
    "chunk_text":"Variable: DDORRES\nLabel: 原始结果\nDomain: DD",
    "metadata":"{\"variable\": \"DDORRES\", \"label\": \"原始结果\", \"core\": \"期望\", \"domain\": \"DD\", \"language\": \"zh\", \"type\": \"sdtm_spec_field\", \"confidence_default\": 0.7, \"metadata_variable\": \"DDORRES\", \"source\": \"sdtm_spec_v3.2_temp\"}",
    "variable":"DDORRES",
    "label":"原始结果",
    "core":"期望",
    "domain":"DD",
    "metadata_variable":"DDORRES",
    "language":"zh",
    "confidence_default":0.7,
    "source":"sdtm_spec_v3.2_temp",
    "keywords":null,
    "common_tables":null,
    "var_description":null
  },
  {
    "chunk_id":"SDTM_SPEC::DDSTRESC",
    "chunk_text":"Variable: DDSTRESC\nLabel: 标准化结果\nDomain: DD",
    "metadata":"{\"variable\": \"DDSTRESC\", \"label\": \"标准化结果\", \"core\": \"期望\", \"domain\": \"DD\", \"language\": \"zh\", \"type\": \"sdtm_spec_field\", \"confidence_default\": 0.7, \"metadata_variable\": \"DDSTRESC\", \"source\": \"sdtm_spec_v3.2_temp\"}",
    "variable":"DDSTRESC",
    "label":"标准化结果",
    "core":"期望",
    "domain":"DD",
    "metadata_variable":"DDSTRESC",
    "language":"zh",
    "confidence_default":0.7,
    "source":"sdtm_spec_v3.2_temp",
    "keywords":null,
    "common_tables":null,
    "var_description":null
  },
  {
    "chunk_id":"SDTM_SPEC::DDRESCAT",
    "chunk_text":"Variable: DDRESCAT\nLabel: 结果类别\nDomain: DD",
    "metadata":"{\"variable\": \"DDRESCAT\", \"label\": \"结果类别\", \"core\": \"可有\", \"domain\": \"DD\", \"language\": \"zh\", \"type\": \"sdtm_spec_field\", \"confidence_default\": 0.7, \"metadata_variable\": \"DDRESCAT\", \"source\": \"sdtm_spec_v3.2_temp\"}",
    "variable":"DDRESCAT",
    "label":"结果类别",
    "core":"可有",
    "domain":"DD",
    "metadata_variable":"DDRESCAT",
    "language":"zh",
    "confidence_default":0.7,
    "source":"sdtm_spec_v3.2_temp",
    "keywords":null,
    "common_tables":null,
    "var_description":null
  },
  {
    "chunk_id":"SDTM_SPEC::DDEVAL",
    "chunk_text":"Variable: DDEVAL\nLabel: 评估者\nDomain: DD",
    "metadata":"{\"variable\": \"DDEVAL\", \"label\": \"评估者\", \"core\": \"可有\", \"domain\": \"DD\", \"language\": \"zh\", \"type\": \"sdtm_spec_field\", \"confidence_default\": 0.7, \"metadata_variable\": \"DDEVAL\", \"source\": \"sdtm_spec_v3.2_temp\"}",
    "variable":"DDEVAL",
    "label":"评估者",
    "core":"可有",
    "domain":"DD",
    "metadata_variable":"DDEVAL",
    "language":"zh",
    "confidence_default":0.7,
    "source":"sdtm_spec_v3.2_temp",
    "keywords":null,
    "common_tables":null,
    "var_description":null
  },
  {
    "chunk_id":"SDTM_SPEC::DDDTC",
    "chunk_text":"Variable: DDDTC\nLabel: 采集日期\/时间\nDomain: DD",
    "metadata":"{\"variable\": \"DDDTC\", \"label\": \"采集日期\/时间\", \"core\": \"期望\", \"domain\": \"DD\", \"language\": \"zh\", \"type\": \"sdtm_spec_field\", \"confidence_default\": 0.7, \"metadata_variable\": \"DDDTC\", \"source\": \"sdtm_spec_v3.2_temp\"}",
    "variable":"DDDTC",
    "label":"采集日期\/时间",
    "core":"期望",
    "domain":"DD",
    "metadata_variable":"DDDTC",
    "language":"zh",
    "confidence_default":0.7,
    "source":"sdtm_spec_v3.2_temp",
    "keywords":null,
    "common_tables":null,
    "var_description":null
  },
  {
    "chunk_id":"SDTM_SPEC::DDDY",
    "chunk_text":"Variable: DDDY\nLabel: 采集日\nDomain: DD",
    "metadata":"{\"variable\": \"DDDY\", \"label\": \"采集日\", \"core\": \"可有\", \"domain\": \"DD\", \"language\": \"zh\", \"type\": \"sdtm_spec_field\", \"confidence_default\": 0.7, \"metadata_variable\": \"DDDY\", \"source\": \"sdtm_spec_v3.2_temp\"}",
    "variable":"DDDY",
    "label":"采集日",
    "core":"可有",
    "domain":"DD",
    "metadata_variable":"DDDY",
    "language":"zh",
    "confidence_default":0.7,
    "source":"sdtm_spec_v3.2_temp",
    "keywords":null,
    "common_tables":null,
    "var_description":null
  },
  {
    "chunk_id":"SDTM_SPEC::STUDYID",
    "chunk_text":"Variable: STUDYID\nLabel: 研究标识符\nDomain: DM\n域描述: 人口学域 - 记录受试者的基本人口学信息",
    "metadata":"{\"variable\": \"STUDYID\", \"label\": \"研究标识符\", \"core\": \"必需\", \"domain\": \"DM\", \"language\": \"zh\", \"type\": \"sdtm_spec_field\", \"confidence_default\": 0.7, \"metadata_variable\": \"STUDYID\", \"source\": \"sdtm_spec_v3.2_temp\"}",
    "variable":"STUDYID",
    "label":"研究标识符",
    "core":"必需",
    "domain":"DM",
    "metadata_variable":"STUDYID",
    "language":"zh",
    "confidence_default":0.7,
    "source":"sdtm_spec_v3.2_temp",
    "keywords":null,
    "common_tables":null,
    "var_description":null
  },
  {
    "chunk_id":"SDTM_SPEC::DOMAIN",
    "chunk_text":"Variable: DOMAIN\nLabel: 域名缩写\nDomain: DM\n域描述: 人口学域 - 记录受试者的基本人口学信息",
    "metadata":"{\"variable\": \"DOMAIN\", \"label\": \"域名缩写\", \"core\": \"必需\", \"domain\": \"DM\", \"language\": \"zh\", \"type\": \"sdtm_spec_field\", \"confidence_default\": 0.7, \"metadata_variable\": \"DOMAIN\", \"source\": \"sdtm_spec_v3.2_temp\"}",
    "variable":"DOMAIN",
    "label":"域名缩写",
    "core":"必需",
    "domain":"DM",
    "metadata_variable":"DOMAIN",
    "language":"zh",
    "confidence_default":0.7,
    "source":"sdtm_spec_v3.2_temp",
    "keywords":null,
    "common_tables":null,
    "var_description":null
  },
  {
    "chunk_id":"SDTM_SPEC::USUBJID",
    "chunk_text":"Variable: USUBJID\nLabel: 受试者唯一标识符\nDomain: DM\n域描述: 人口学域 - 记录受试者的基本人口学信息",
    "metadata":"{\"variable\": \"USUBJID\", \"label\": \"受试者唯一标识符\", \"core\": \"必需\", \"domain\": \"DM\", \"language\": \"zh\", \"type\": \"sdtm_spec_field\", \"confidence_default\": 0.7, \"metadata_variable\": \"USUBJID\", \"source\": \"sdtm_spec_v3.2_temp\"}",
    "variable":"USUBJID",
    "label":"受试者唯一标识符",
    "core":"必需",
    "domain":"DM",
    "metadata_variable":"USUBJID",
    "language":"zh",
    "confidence_default":0.7,
    "source":"sdtm_spec_v3.2_temp",
    "keywords":null,
    "common_tables":null,
    "var_description":null
  },
  {
    "chunk_id":"SDTM_SPEC::SUBJID",
    "chunk_text":"Variable: SUBJID\nLabel: 受试者标识符\nDomain: DM\n域描述: 人口学域 - 记录受试者的基本人口学信息",
    "metadata":"{\"variable\": \"SUBJID\", \"label\": \"受试者标识符\", \"core\": \"必需\", \"domain\": \"DM\", \"language\": \"zh\", \"type\": \"sdtm_spec_field\", \"confidence_default\": 0.7, \"metadata_variable\": \"SUBJID\", \"source\": \"sdtm_spec_v3.2_temp\"}",
    "variable":"SUBJID",
    "label":"受试者标识符",
    "core":"必需",
    "domain":"DM",
    "metadata_variable":"SUBJID",
    "language":"zh",
    "confidence_default":0.7,
    "source":"sdtm_spec_v3.2_temp",
    "keywords":null,
    "common_tables":null,
    "var_description":null
  },
  {
    "chunk_id":"SDTM_SPEC::RFSTDTC",
    "chunk_text":"Variable: RFSTDTC\nLabel: 受试者参照开始日期\/时间\nDomain: DM\n域描述: 人口学域 - 记录受试者的基本人口学信息",
    "metadata":"{\"variable\": \"RFSTDTC\", \"label\": \"受试者参照开始日期\/时间\", \"core\": \"期望\", \"domain\": \"DM\", \"language\": \"zh\", \"type\": \"sdtm_spec_field\", \"confidence_default\": 0.7, \"metadata_variable\": \"RFSTDTC\", \"source\": \"sdtm_spec_v3.2_temp\"}",
    "variable":"RFSTDTC",
    "label":"受试者参照开始日期\/时间",
    "core":"期望",
    "domain":"DM",
    "metadata_variable":"RFSTDTC",
    "language":"zh",
    "confidence_default":0.7,
    "source":"sdtm_spec_v3.2_temp",
    "keywords":null,
    "common_tables":null,
    "var_description":null
  },
  {
    "chunk_id":"SDTM_SPEC::RFENDTC",
    "chunk_text":"Variable: RFENDTC\nLabel: 受试者参照结束日期\/时间\nDomain: DM\n域描述: 人口学域 - 记录受试者的基本人口学信息",
    "metadata":"{\"variable\": \"RFENDTC\", \"label\": \"受试者参照结束日期\/时间\", \"core\": \"期望\", \"domain\": \"DM\", \"language\": \"zh\", \"type\": \"sdtm_spec_field\", \"confidence_default\": 0.7, \"metadata_variable\": \"RFENDTC\", \"source\": \"sdtm_spec_v3.2_temp\"}",
    "variable":"RFENDTC",
    "label":"受试者参照结束日期\/时间",
    "core":"期望",
    "domain":"DM",
    "metadata_variable":"RFENDTC",
    "language":"zh",
    "confidence_default":0.7,
    "source":"sdtm_spec_v3.2_temp",
    "keywords":null,
    "common_tables":null,
    "var_description":null
  },
  {
    "chunk_id":"SDTM_SPEC::RFXSTDTC",
    "chunk_text":"Variable: RFXSTDTC\nLabel: 首次研究治疗日期\/时间\nDomain: DM\n域描述: 人口学域 - 记录受试者的基本人口学信息",
    "metadata":"{\"variable\": \"RFXSTDTC\", \"label\": \"首次研究治疗日期\/时间\", \"core\": \"期望\", \"domain\": \"DM\", \"language\": \"zh\", \"type\": \"sdtm_spec_field\", \"confidence_default\": 0.7, \"metadata_variable\": \"RFXSTDTC\", \"source\": \"sdtm_spec_v3.2_temp\"}",
    "variable":"RFXSTDTC",
    "label":"首次研究治疗日期\/时间",
    "core":"期望",
    "domain":"DM",
    "metadata_variable":"RFXSTDTC",
    "language":"zh",
    "confidence_default":0.7,
    "source":"sdtm_spec_v3.2_temp",
    "keywords":null,
    "common_tables":null,
    "var_description":null
  },
  {
    "chunk_id":"SDTM_SPEC::RFXENDTC",
    "chunk_text":"Variable: RFXENDTC\nLabel: 末次研究治疗日期\/时间\nDomain: DM\n域描述: 人口学域 - 记录受试者的基本人口学信息",
    "metadata":"{\"variable\": \"RFXENDTC\", \"label\": \"末次研究治疗日期\/时间\", \"core\": \"期望\", \"domain\": \"DM\", \"language\": \"zh\", \"type\": \"sdtm_spec_field\", \"confidence_default\": 0.7, \"metadata_variable\": \"RFXENDTC\", \"source\": \"sdtm_spec_v3.2_temp\"}",
    "variable":"RFXENDTC",
    "label":"末次研究治疗日期\/时间",
    "core":"期望",
    "domain":"DM",
    "metadata_variable":"RFXENDTC",
    "language":"zh",
    "confidence_default":0.7,
    "source":"sdtm_spec_v3.2_temp",
    "keywords":null,
    "common_tables":null,
    "var_description":null
  },
  {
    "chunk_id":"SDTM_SPEC::RFICDTC",
    "chunk_text":"Variable: RFICDTC\nLabel: 知情同意日期\/时间\nDomain: DM\n域描述: 人口学域 - 记录受试者的基本人口学信息",
    "metadata":"{\"variable\": \"RFICDTC\", \"label\": \"知情同意日期\/时间\", \"core\": \"期望\", \"domain\": \"DM\", \"language\": \"zh\", \"type\": \"sdtm_spec_field\", \"confidence_default\": 0.7, \"metadata_variable\": \"RFICDTC\", \"source\": \"sdtm_spec_v3.2_temp\"}",
    "variable":"RFICDTC",
    "label":"知情同意日期\/时间",
    "core":"期望",
    "domain":"DM",
    "metadata_variable":"RFICDTC",
    "language":"zh",
    "confidence_default":0.7,
    "source":"sdtm_spec_v3.2_temp",
    "keywords":null,
    "common_tables":null,
    "var_description":null
  },
  {
    "chunk_id":"SDTM_SPEC::RFPENDTC",
    "chunk_text":"Variable: RFPENDTC\nLabel: 参与结束日期\/时间\nDomain: DM\n域描述: 人口学域 - 记录受试者的基本人口学信息",
    "metadata":"{\"variable\": \"RFPENDTC\", \"label\": \"参与结束日期\/时间\", \"core\": \"期望\", \"domain\": \"DM\", \"language\": \"zh\", \"type\": \"sdtm_spec_field\", \"confidence_default\": 0.7, \"metadata_variable\": \"RFPENDTC\", \"source\": \"sdtm_spec_v3.2_temp\"}",
    "variable":"RFPENDTC",
    "label":"参与结束日期\/时间",
    "core":"期望",
    "domain":"DM",
    "metadata_variable":"RFPENDTC",
    "language":"zh",
    "confidence_default":0.7,
    "source":"sdtm_spec_v3.2_temp",
    "keywords":null,
    "common_tables":null,
    "var_description":null
  },
  {
    "chunk_id":"SDTM_SPEC::DTHDTC",
    "chunk_text":"Variable: DTHDTC\nLabel: 死亡日期\/时间\nDomain: DM\n域描述: 人口学域 - 记录受试者的基本人口学信息",
    "metadata":"{\"variable\": \"DTHDTC\", \"label\": \"死亡日期\/时间\", \"core\": \"期望\", \"domain\": \"DM\", \"language\": \"zh\", \"type\": \"sdtm_spec_field\", \"confidence_default\": 0.7, \"metadata_variable\": \"DTHDTC\", \"source\": \"sdtm_spec_v3.2_temp\"}",
    "variable":"DTHDTC",
    "label":"死亡日期\/时间",
    "core":"期望",
    "domain":"DM",
    "metadata_variable":"DTHDTC",
    "language":"zh",
    "confidence_default":0.7,
    "source":"sdtm_spec_v3.2_temp",
    "keywords":null,
    "common_tables":null,
    "var_description":null
  },
  {
    "chunk_id":"SDTM_SPEC::DTHFL",
    "chunk_text":"Variable: DTHFL\nLabel: 死亡标帜\nDomain: DM\n域描述: 人口学域 - 记录受试者的基本人口学信息",
    "metadata":"{\"variable\": \"DTHFL\", \"label\": \"死亡标帜\", \"core\": \"期望\", \"domain\": \"DM\", \"language\": \"zh\", \"type\": \"sdtm_spec_field\", \"confidence_default\": 0.7, \"metadata_variable\": \"DTHFL\", \"source\": \"sdtm_spec_v3.2_temp\"}",
    "variable":"DTHFL",
    "label":"死亡标帜",
    "core":"期望",
    "domain":"DM",
    "metadata_variable":"DTHFL",
    "language":"zh",
    "confidence_default":0.7,
    "source":"sdtm_spec_v3.2_temp",
    "keywords":null,
    "common_tables":null,
    "var_description":null
  },
  {
    "chunk_id":"SDTM_SPEC::SITEID",
    "chunk_text":"Variable: SITEID\nLabel: 研究中心标识符\nDomain: DM\n域描述: 人口学域 - 记录受试者的基本人口学信息",
    "metadata":"{\"variable\": \"SITEID\", \"label\": \"研究中心标识符\", \"core\": \"必需\", \"domain\": \"DM\", \"language\": \"zh\", \"type\": \"sdtm_spec_field\", \"confidence_default\": 0.7, \"metadata_variable\": \"SITEID\", \"source\": \"sdtm_spec_v3.2_temp\"}",
    "variable":"SITEID",
    "label":"研究中心标识符",
    "core":"必需",
    "domain":"DM",
    "metadata_variable":"SITEID",
    "language":"zh",
    "confidence_default":0.7,
    "source":"sdtm_spec_v3.2_temp",
    "keywords":null,
    "common_tables":null,
    "var_description":null
  },
  {
    "chunk_id":"SDTM_SPEC::INVID",
    "chunk_text":"Variable: INVID\nLabel: 研究者标识符\nDomain: DM\n域描述: 人口学域 - 记录受试者的基本人口学信息",
    "metadata":"{\"variable\": \"INVID\", \"label\": \"研究者标识符\", \"core\": \"可有\", \"domain\": \"DM\", \"language\": \"zh\", \"type\": \"sdtm_spec_field\", \"confidence_default\": 0.7, \"metadata_variable\": \"INVID\", \"source\": \"sdtm_spec_v3.2_temp\"}",
    "variable":"INVID",
    "label":"研究者标识符",
    "core":"可有",
    "domain":"DM",
    "metadata_variable":"INVID",
    "language":"zh",
    "confidence_default":0.7,
    "source":"sdtm_spec_v3.2_temp",
    "keywords":null,
    "common_tables":null,
    "var_description":null
  },
  {
    "chunk_id":"SDTM_SPEC::INVNAM",
    "chunk_text":"Variable: INVNAM\nLabel: 研究者姓名\nDomain: DM\n域描述: 人口学域 - 记录受试者的基本人口学信息",
    "metadata":"{\"variable\": \"INVNAM\", \"label\": \"研究者姓名\", \"core\": \"可有\", \"domain\": \"DM\", \"language\": \"zh\", \"type\": \"sdtm_spec_field\", \"confidence_default\": 0.7, \"metadata_variable\": \"INVNAM\", \"source\": \"sdtm_spec_v3.2_temp\"}",
    "variable":"INVNAM",
    "label":"研究者姓名",
    "core":"可有",
    "domain":"DM",
    "metadata_variable":"INVNAM",
    "language":"zh",
    "confidence_default":0.7,
    "source":"sdtm_spec_v3.2_temp",
    "keywords":null,
    "common_tables":null,
    "var_description":null
  },
  {
    "chunk_id":"SDTM_SPEC::BRTHDTC",
    "chunk_text":"Variable: BRTHDTC\nLabel: 出生日期\/时间\nDomain: DM\n域描述: 人口学域 - 记录受试者的基本人口学信息",
    "metadata":"{\"variable\": \"BRTHDTC\", \"label\": \"出生日期\/时间\", \"core\": \"可有\", \"domain\": \"DM\", \"language\": \"zh\", \"type\": \"sdtm_spec_field\", \"confidence_default\": 0.7, \"metadata_variable\": \"BRTHDTC\", \"source\": \"sdtm_spec_v3.2_temp\"}",
    "variable":"BRTHDTC",
    "label":"出生日期\/时间",
    "core":"可有",
    "domain":"DM",
    "metadata_variable":"BRTHDTC",
    "language":"zh",
    "confidence_default":0.7,
    "source":"sdtm_spec_v3.2_temp",
    "keywords":null,
    "common_tables":null,
    "var_description":null
  },
  {
    "chunk_id":"SDTM_SPEC::AGE",
    "chunk_text":"Variable: AGE\nLabel: 年龄\nDomain: DM\n域描述: 人口学域 - 记录受试者的基本人口学信息",
    "metadata":"{\"variable\": \"AGE\", \"label\": \"年龄\", \"core\": \"期望\", \"domain\": \"DM\", \"language\": \"zh\", \"type\": \"sdtm_spec_field\", \"confidence_default\": 0.7, \"metadata_variable\": \"AGE\", \"source\": \"sdtm_spec_v3.2_temp\"}",
    "variable":"AGE",
    "label":"年龄",
    "core":"期望",
    "domain":"DM",
    "metadata_variable":"AGE",
    "language":"zh",
    "confidence_default":0.7,
    "source":"sdtm_spec_v3.2_temp",
    "keywords":null,
    "common_tables":null,
    "var_description":null
  },
  {
    "chunk_id":"SDTM_SPEC::AGEU",
    "chunk_text":"Variable: AGEU\nLabel: 年龄单位\nDomain: DM\n域描述: 人口学域 - 记录受试者的基本人口学信息",
    "metadata":"{\"variable\": \"AGEU\", \"label\": \"年龄单位\", \"core\": \"期望\", \"domain\": \"DM\", \"language\": \"zh\", \"type\": \"sdtm_spec_field\", \"confidence_default\": 0.7, \"metadata_variable\": \"AGEU\", \"source\": \"sdtm_spec_v3.2_temp\"}",
    "variable":"AGEU",
    "label":"年龄单位",
    "core":"期望",
    "domain":"DM",
    "metadata_variable":"AGEU",
    "language":"zh",
    "confidence_default":0.7,
    "source":"sdtm_spec_v3.2_temp",
    "keywords":null,
    "common_tables":null,
    "var_description":null
  },
  {
    "chunk_id":"SDTM_SPEC::SEX",
    "chunk_text":"Variable: SEX\nLabel: 性别\nDomain: DM\n域描述: 人口学域 - 记录受试者的基本人口学信息",
    "metadata":"{\"variable\": \"SEX\", \"label\": \"性别\", \"core\": \"必需\", \"domain\": \"DM\", \"language\": \"zh\", \"type\": \"sdtm_spec_field\", \"confidence_default\": 0.7, \"metadata_variable\": \"SEX\", \"source\": \"sdtm_spec_v3.2_temp\"}",
    "variable":"SEX",
    "label":"性别",
    "core":"必需",
    "domain":"DM",
    "metadata_variable":"SEX",
    "language":"zh",
    "confidence_default":0.7,
    "source":"sdtm_spec_v3.2_temp",
    "keywords":null,
    "common_tables":null,
    "var_description":null
  },
  {
    "chunk_id":"SDTM_SPEC::RACE",
    "chunk_text":"Variable: RACE\nLabel: 种族\nDomain: DM\n域描述: 人口学域 - 记录受试者的基本人口学信息",
    "metadata":"{\"variable\": \"RACE\", \"label\": \"种族\", \"core\": \"期望\", \"domain\": \"DM\", \"language\": \"zh\", \"type\": \"sdtm_spec_field\", \"confidence_default\": 0.7, \"metadata_variable\": \"RACE\", \"source\": \"sdtm_spec_v3.2_temp\"}",
    "variable":"RACE",
    "label":"种族",
    "core":"期望",
    "domain":"DM",
    "metadata_variable":"RACE",
    "language":"zh",
    "confidence_default":0.7,
    "source":"sdtm_spec_v3.2_temp",
    "keywords":null,
    "common_tables":null,
    "var_description":null
  },
  {
    "chunk_id":"SDTM_SPEC::ETHNIC",
    "chunk_text":"Variable: ETHNIC\nLabel: 族群\nDomain: DM\n域描述: 人口学域 - 记录受试者的基本人口学信息",
    "metadata":"{\"variable\": \"ETHNIC\", \"label\": \"族群\", \"core\": \"可有\", \"domain\": \"DM\", \"language\": \"zh\", \"type\": \"sdtm_spec_field\", \"confidence_default\": 0.7, \"metadata_variable\": \"ETHNIC\", \"source\": \"sdtm_spec_v3.2_temp\"}",
    "variable":"ETHNIC",
    "label":"族群",
    "core":"可有",
    "domain":"DM",
    "metadata_variable":"ETHNIC",
    "language":"zh",
    "confidence_default":0.7,
    "source":"sdtm_spec_v3.2_temp",
    "keywords":null,
    "common_tables":null,
    "var_description":null
  },
  {
    "chunk_id":"SDTM_SPEC::ARMCD",
    "chunk_text":"Variable: ARMCD\nLabel: 计划分组编码\nDomain: DM\n域描述: 人口学域 - 记录受试者的基本人口学信息",
    "metadata":"{\"variable\": \"ARMCD\", \"label\": \"计划分组编码\", \"core\": \"必需\", \"domain\": \"DM\", \"language\": \"zh\", \"type\": \"sdtm_spec_field\", \"confidence_default\": 0.7, \"metadata_variable\": \"ARMCD\", \"source\": \"sdtm_spec_v3.2_temp\"}",
    "variable":"ARMCD",
    "label":"计划分组编码",
    "core":"必需",
    "domain":"DM",
    "metadata_variable":"ARMCD",
    "language":"zh",
    "confidence_default":0.7,
    "source":"sdtm_spec_v3.2_temp",
    "keywords":null,
    "common_tables":null,
    "var_description":null
  },
  {
    "chunk_id":"SDTM_SPEC::ARM",
    "chunk_text":"Variable: ARM\nLabel: 计划分组描述\nDomain: DM\n域描述: 人口学域 - 记录受试者的基本人口学信息",
    "metadata":"{\"variable\": \"ARM\", \"label\": \"计划分组描述\", \"core\": \"必需\", \"domain\": \"DM\", \"language\": \"zh\", \"type\": \"sdtm_spec_field\", \"confidence_default\": 0.7, \"metadata_variable\": \"ARM\", \"source\": \"sdtm_spec_v3.2_temp\"}",
    "variable":"ARM",
    "label":"计划分组描述",
    "core":"必需",
    "domain":"DM",
    "metadata_variable":"ARM",
    "language":"zh",
    "confidence_default":0.7,
    "source":"sdtm_spec_v3.2_temp",
    "keywords":null,
    "common_tables":null,
    "var_description":null
  },
  {
    "chunk_id":"SDTM_SPEC::ACTARMCD",
    "chunk_text":"Variable: ACTARMCD\nLabel: 实际分组编码\nDomain: DM\n域描述: 人口学域 - 记录受试者的基本人口学信息",
    "metadata":"{\"variable\": \"ACTARMCD\", \"label\": \"实际分组编码\", \"core\": \"必需\", \"domain\": \"DM\", \"language\": \"zh\", \"type\": \"sdtm_spec_field\", \"confidence_default\": 0.7, \"metadata_variable\": \"ACTARMCD\", \"source\": \"sdtm_spec_v3.2_temp\"}",
    "variable":"ACTARMCD",
    "label":"实际分组编码",
    "core":"必需",
    "domain":"DM",
    "metadata_variable":"ACTARMCD",
    "language":"zh",
    "confidence_default":0.7,
    "source":"sdtm_spec_v3.2_temp",
    "keywords":null,
    "common_tables":null,
    "var_description":null
  },
  {
    "chunk_id":"SDTM_SPEC::ACTARM",
    "chunk_text":"Variable: ACTARM\nLabel: 实际分组描述\nDomain: DM\n域描述: 人口学域 - 记录受试者的基本人口学信息",
    "metadata":"{\"variable\": \"ACTARM\", \"label\": \"实际分组描述\", \"core\": \"必需\", \"domain\": \"DM\", \"language\": \"zh\", \"type\": \"sdtm_spec_field\", \"confidence_default\": 0.7, \"metadata_variable\": \"ACTARM\", \"source\": \"sdtm_spec_v3.2_temp\"}",
    "variable":"ACTARM",
    "label":"实际分组描述",
    "core":"必需",
    "domain":"DM",
    "metadata_variable":"ACTARM",
    "language":"zh",
    "confidence_default":0.7,
    "source":"sdtm_spec_v3.2_temp",
    "keywords":null,
    "common_tables":null,
    "var_description":null
  },
  {
    "chunk_id":"SDTM_SPEC::COUNTRY",
    "chunk_text":"Variable: COUNTRY\nLabel: 国家\nDomain: DM\n域描述: 人口学域 - 记录受试者的基本人口学信息",
    "metadata":"{\"variable\": \"COUNTRY\", \"label\": \"国家\", \"core\": \"必需\", \"domain\": \"DM\", \"language\": \"zh\", \"type\": \"sdtm_spec_field\", \"confidence_default\": 0.7, \"metadata_variable\": \"COUNTRY\", \"source\": \"sdtm_spec_v3.2_temp\"}",
    "variable":"COUNTRY",
    "label":"国家",
    "core":"必需",
    "domain":"DM",
    "metadata_variable":"COUNTRY",
    "language":"zh",
    "confidence_default":0.7,
    "source":"sdtm_spec_v3.2_temp",
    "keywords":null,
    "common_tables":null,
    "var_description":null
  },
  {
    "chunk_id":"SDTM_SPEC::DMDTC",
    "chunk_text":"Variable: DMDTC\nLabel: 采集日期\/时间\nDomain: DM\n域描述: 人口学域 - 记录受试者的基本人口学信息",
    "metadata":"{\"variable\": \"DMDTC\", \"label\": \"采集日期\/时间\", \"core\": \"可有\", \"domain\": \"DM\", \"language\": \"zh\", \"type\": \"sdtm_spec_field\", \"confidence_default\": 0.7, \"metadata_variable\": \"DMDTC\", \"source\": \"sdtm_spec_v3.2_temp\"}",
    "variable":"DMDTC",
    "label":"采集日期\/时间",
    "core":"可有",
    "domain":"DM",
    "metadata_variable":"DMDTC",
    "language":"zh",
    "confidence_default":0.7,
    "source":"sdtm_spec_v3.2_temp",
    "keywords":null,
    "common_tables":null,
    "var_description":null
  },
  {
    "chunk_id":"SDTM_SPEC::DMDY",
    "chunk_text":"Variable: DMDY\nLabel: 采集日\nDomain: DM\n域描述: 人口学域 - 记录受试者的基本人口学信息",
    "metadata":"{\"variable\": \"DMDY\", \"label\": \"采集日\", \"core\": \"可有\", \"domain\": \"DM\", \"language\": \"zh\", \"type\": \"sdtm_spec_field\", \"confidence_default\": 0.7, \"metadata_variable\": \"DMDY\", \"source\": \"sdtm_spec_v3.2_temp\"}",
    "variable":"DMDY",
    "label":"采集日",
    "core":"可有",
    "domain":"DM",
    "metadata_variable":"DMDY",
    "language":"zh",
    "confidence_default":0.7,
    "source":"sdtm_spec_v3.2_temp",
    "keywords":null,
    "common_tables":null,
    "var_description":null
  },
  {
    "chunk_id":"SDTM_SPEC::STUDYID",
    "chunk_text":"Variable: STUDYID\nLabel: 研究标识符\nDomain: DS\n域描述: 受试者处置域 - 记录受试者的研究进展和处置信息",
    "metadata":"{\"variable\": \"STUDYID\", \"label\": \"研究标识符\", \"core\": \"必需\", \"domain\": \"DS\", \"language\": \"zh\", \"type\": \"sdtm_spec_field\", \"confidence_default\": 0.7, \"metadata_variable\": \"STUDYID\", \"source\": \"sdtm_spec_v3.2_temp\"}",
    "variable":"STUDYID",
    "label":"研究标识符",
    "core":"必需",
    "domain":"DS",
    "metadata_variable":"STUDYID",
    "language":"zh",
    "confidence_default":0.7,
    "source":"sdtm_spec_v3.2_temp",
    "keywords":null,
    "common_tables":null,
    "var_description":null
  },
  {
    "chunk_id":"SDTM_SPEC::DOMAIN",
    "chunk_text":"Variable: DOMAIN\nLabel: 域名缩写\nDomain: DS\n域描述: 受试者处置域 - 记录受试者的研究进展和处置信息",
    "metadata":"{\"variable\": \"DOMAIN\", \"label\": \"域名缩写\", \"core\": \"必需\", \"domain\": \"DS\", \"language\": \"zh\", \"type\": \"sdtm_spec_field\", \"confidence_default\": 0.7, \"metadata_variable\": \"DOMAIN\", \"source\": \"sdtm_spec_v3.2_temp\"}",
    "variable":"DOMAIN",
    "label":"域名缩写",
    "core":"必需",
    "domain":"DS",
    "metadata_variable":"DOMAIN",
    "language":"zh",
    "confidence_default":0.7,
    "source":"sdtm_spec_v3.2_temp",
    "keywords":null,
    "common_tables":null,
    "var_description":null
  },
  {
    "chunk_id":"SDTM_SPEC::USUBJID",
    "chunk_text":"Variable: USUBJID\nLabel: 受试者唯一标识符\nDomain: DS\n域描述: 受试者处置域 - 记录受试者的研究进展和处置信息",
    "metadata":"{\"variable\": \"USUBJID\", \"label\": \"受试者唯一标识符\", \"core\": \"必需\", \"domain\": \"DS\", \"language\": \"zh\", \"type\": \"sdtm_spec_field\", \"confidence_default\": 0.7, \"metadata_variable\": \"USUBJID\", \"source\": \"sdtm_spec_v3.2_temp\"}",
    "variable":"USUBJID",
    "label":"受试者唯一标识符",
    "core":"必需",
    "domain":"DS",
    "metadata_variable":"USUBJID",
    "language":"zh",
    "confidence_default":0.7,
    "source":"sdtm_spec_v3.2_temp",
    "keywords":null,
    "common_tables":null,
    "var_description":null
  },
  {
    "chunk_id":"SDTM_SPEC::DSSEQ",
    "chunk_text":"Variable: DSSEQ\nLabel: 序号\nDomain: DS\n域描述: 受试者处置域 - 记录受试者的研究进展和处置信息",
    "metadata":"{\"variable\": \"DSSEQ\", \"label\": \"序号\", \"core\": \"必需\", \"domain\": \"DS\", \"language\": \"zh\", \"type\": \"sdtm_spec_field\", \"confidence_default\": 0.7, \"metadata_variable\": \"DSSEQ\", \"source\": \"sdtm_spec_v3.2_temp\"}",
    "variable":"DSSEQ",
    "label":"序号",
    "core":"必需",
    "domain":"DS",
    "metadata_variable":"DSSEQ",
    "language":"zh",
    "confidence_default":0.7,
    "source":"sdtm_spec_v3.2_temp",
    "keywords":null,
    "common_tables":null,
    "var_description":null
  },
  {
    "chunk_id":"SDTM_SPEC::DSGRPID",
    "chunk_text":"Variable: DSGRPID\nLabel: 组合ID\nDomain: DS\n域描述: 受试者处置域 - 记录受试者的研究进展和处置信息",
    "metadata":"{\"variable\": \"DSGRPID\", \"label\": \"组合ID\", \"core\": \"可有\", \"domain\": \"DS\", \"language\": \"zh\", \"type\": \"sdtm_spec_field\", \"confidence_default\": 0.7, \"metadata_variable\": \"DSGRPID\", \"source\": \"sdtm_spec_v3.2_temp\"}",
    "variable":"DSGRPID",
    "label":"组合ID",
    "core":"可有",
    "domain":"DS",
    "metadata_variable":"DSGRPID",
    "language":"zh",
    "confidence_default":0.7,
    "source":"sdtm_spec_v3.2_temp",
    "keywords":null,
    "common_tables":null,
    "var_description":null
  },
  {
    "chunk_id":"SDTM_SPEC::DSREFID",
    "chunk_text":"Variable: DSREFID\nLabel: 参考ID\nDomain: DS\n域描述: 受试者处置域 - 记录受试者的研究进展和处置信息",
    "metadata":"{\"variable\": \"DSREFID\", \"label\": \"参考ID\", \"core\": \"可有\", \"domain\": \"DS\", \"language\": \"zh\", \"type\": \"sdtm_spec_field\", \"confidence_default\": 0.7, \"metadata_variable\": \"DSREFID\", \"source\": \"sdtm_spec_v3.2_temp\"}",
    "variable":"DSREFID",
    "label":"参考ID",
    "core":"可有",
    "domain":"DS",
    "metadata_variable":"DSREFID",
    "language":"zh",
    "confidence_default":0.7,
    "source":"sdtm_spec_v3.2_temp",
    "keywords":null,
    "common_tables":null,
    "var_description":null
  },
  {
    "chunk_id":"SDTM_SPEC::DSSPID",
    "chunk_text":"Variable: DSSPID\nLabel: 自定义标识符\nDomain: DS\n域描述: 受试者处置域 - 记录受试者的研究进展和处置信息",
    "metadata":"{\"variable\": \"DSSPID\", \"label\": \"自定义标识符\", \"core\": \"可有\", \"domain\": \"DS\", \"language\": \"zh\", \"type\": \"sdtm_spec_field\", \"confidence_default\": 0.7, \"metadata_variable\": \"DSSPID\", \"source\": \"sdtm_spec_v3.2_temp\"}",
    "variable":"DSSPID",
    "label":"自定义标识符",
    "core":"可有",
    "domain":"DS",
    "metadata_variable":"DSSPID",
    "language":"zh",
    "confidence_default":0.7,
    "source":"sdtm_spec_v3.2_temp",
    "keywords":null,
    "common_tables":null,
    "var_description":null
  },
  {
    "chunk_id":"SDTM_SPEC::DSTERM",
    "chunk_text":"Variable: DSTERM\nLabel: 受试者分布事件报告名称\nDomain: DS\n域描述: 受试者处置域 - 记录受试者的研究进展和处置信息",
    "metadata":"{\"variable\": \"DSTERM\", \"label\": \"受试者分布事件报告名称\", \"core\": \"必需\", \"domain\": \"DS\", \"language\": \"zh\", \"type\": \"sdtm_spec_field\", \"confidence_default\": 0.7, \"metadata_variable\": \"DSTERM\", \"source\": \"sdtm_spec_v3.2_temp\"}",
    "variable":"DSTERM",
    "label":"受试者分布事件报告名称",
    "core":"必需",
    "domain":"DS",
    "metadata_variable":"DSTERM",
    "language":"zh",
    "confidence_default":0.7,
    "source":"sdtm_spec_v3.2_temp",
    "keywords":null,
    "common_tables":null,
    "var_description":null
  },
  {
    "chunk_id":"SDTM_SPEC::DSDECOD",
    "chunk_text":"Variable: DSDECOD\nLabel: 标准化名称\nDomain: DS\n域描述: 受试者处置域 - 记录受试者的研究进展和处置信息",
    "metadata":"{\"variable\": \"DSDECOD\", \"label\": \"标准化名称\", \"core\": \"必需\", \"domain\": \"DS\", \"language\": \"zh\", \"type\": \"sdtm_spec_field\", \"confidence_default\": 0.7, \"metadata_variable\": \"DSDECOD\", \"source\": \"sdtm_spec_v3.2_temp\"}",
    "variable":"DSDECOD",
    "label":"标准化名称",
    "core":"必需",
    "domain":"DS",
    "metadata_variable":"DSDECOD",
    "language":"zh",
    "confidence_default":0.7,
    "source":"sdtm_spec_v3.2_temp",
    "keywords":null,
    "common_tables":null,
    "var_description":null
  },
  {
    "chunk_id":"SDTM_SPEC::DSCAT",
    "chunk_text":"Variable: DSCAT\nLabel: 类别\nDomain: DS\n域描述: 受试者处置域 - 记录受试者的研究进展和处置信息",
    "metadata":"{\"variable\": \"DSCAT\", \"label\": \"类别\", \"core\": \"期望\", \"domain\": \"DS\", \"language\": \"zh\", \"type\": \"sdtm_spec_field\", \"confidence_default\": 0.7, \"metadata_variable\": \"DSCAT\", \"source\": \"sdtm_spec_v3.2_temp\"}",
    "variable":"DSCAT",
    "label":"类别",
    "core":"期望",
    "domain":"DS",
    "metadata_variable":"DSCAT",
    "language":"zh",
    "confidence_default":0.7,
    "source":"sdtm_spec_v3.2_temp",
    "keywords":null,
    "common_tables":null,
    "var_description":null
  },
  {
    "chunk_id":"SDTM_SPEC::DSSCAT",
    "chunk_text":"Variable: DSSCAT\nLabel: 子类\nDomain: DS\n域描述: 受试者处置域 - 记录受试者的研究进展和处置信息",
    "metadata":"{\"variable\": \"DSSCAT\", \"label\": \"子类\", \"core\": \"可有\", \"domain\": \"DS\", \"language\": \"zh\", \"type\": \"sdtm_spec_field\", \"confidence_default\": 0.7, \"metadata_variable\": \"DSSCAT\", \"source\": \"sdtm_spec_v3.2_temp\"}",
    "variable":"DSSCAT",
    "label":"子类",
    "core":"可有",
    "domain":"DS",
    "metadata_variable":"DSSCAT",
    "language":"zh",
    "confidence_default":0.7,
    "source":"sdtm_spec_v3.2_temp",
    "keywords":null,
    "common_tables":null,
    "var_description":null
  },
  {
    "chunk_id":"SDTM_SPEC::EPOCH",
    "chunk_text":"Variable: EPOCH\nLabel: 时期\nDomain: DS\n域描述: 受试者处置域 - 记录受试者的研究进展和处置信息",
    "metadata":"{\"variable\": \"EPOCH\", \"label\": \"时期\", \"core\": \"可有\", \"domain\": \"DS\", \"language\": \"zh\", \"type\": \"sdtm_spec_field\", \"confidence_default\": 0.7, \"metadata_variable\": \"EPOCH\", \"source\": \"sdtm_spec_v3.2_temp\"}",
    "variable":"EPOCH",
    "label":"时期",
    "core":"可有",
    "domain":"DS",
    "metadata_variable":"EPOCH",
    "language":"zh",
    "confidence_default":0.7,
    "source":"sdtm_spec_v3.2_temp",
    "keywords":null,
    "common_tables":null,
    "var_description":null
  },
  {
    "chunk_id":"SDTM_SPEC::DCDTC",
    "chunk_text":"Variable: DCDTC\nLabel: 采集日期\/时间\nDomain: DS\n域描述: 受试者处置域 - 记录受试者的研究进展和处置信息",
    "metadata":"{\"variable\": \"DCDTC\", \"label\": \"采集日期\/时间\", \"core\": \"可有\", \"domain\": \"DS\", \"language\": \"zh\", \"type\": \"sdtm_spec_field\", \"confidence_default\": 0.7, \"metadata_variable\": \"DCDTC\", \"source\": \"sdtm_spec_v3.2_temp\"}",
    "variable":"DCDTC",
    "label":"采集日期\/时间",
    "core":"可有",
    "domain":"DS",
    "metadata_variable":"DCDTC",
    "language":"zh",
    "confidence_default":0.7,
    "source":"sdtm_spec_v3.2_temp",
    "keywords":null,
    "common_tables":null,
    "var_description":null
  },
  {
    "chunk_id":"SDTM_SPEC::DSSTDTC",
    "chunk_text":"Variable: DSSTDTC\nLabel: 开始日期\/时间\nDomain: DS\n域描述: 受试者处置域 - 记录受试者的研究进展和处置信息",
    "metadata":"{\"variable\": \"DSSTDTC\", \"label\": \"开始日期\/时间\", \"core\": \"期望\", \"domain\": \"DS\", \"language\": \"zh\", \"type\": \"sdtm_spec_field\", \"confidence_default\": 0.7, \"metadata_variable\": \"DSSTDTC\", \"source\": \"sdtm_spec_v3.2_temp\"}",
    "variable":"DSSTDTC",
    "label":"开始日期\/时间",
    "core":"期望",
    "domain":"DS",
    "metadata_variable":"DSSTDTC",
    "language":"zh",
    "confidence_default":0.7,
    "source":"sdtm_spec_v3.2_temp",
    "keywords":null,
    "common_tables":null,
    "var_description":null
  },
  {
    "chunk_id":"SDTM_SPEC::DSSTDY",
    "chunk_text":"Variable: DSSTDY\nLabel: 开始日\nDomain: DS\n域描述: 受试者处置域 - 记录受试者的研究进展和处置信息",
    "metadata":"{\"variable\": \"DSSTDY\", \"label\": \"开始日\", \"core\": \"可有\", \"domain\": \"DS\", \"language\": \"zh\", \"type\": \"sdtm_spec_field\", \"confidence_default\": 0.7, \"metadata_variable\": \"DSSTDY\", \"source\": \"sdtm_spec_v3.2_temp\"}",
    "variable":"DSSTDY",
    "label":"开始日",
    "core":"可有",
    "domain":"DS",
    "metadata_variable":"DSSTDY",
    "language":"zh",
    "confidence_default":0.7,
    "source":"sdtm_spec_v3.2_temp",
    "keywords":null,
    "common_tables":null,
    "var_description":null
  },
  {
    "chunk_id":"SDTM_SPEC::STUDYID",
    "chunk_text":"Variable: STUDYID\nLabel: 研究标识符\nDomain: DV",
    "metadata":"{\"variable\": \"STUDYID\", \"label\": \"研究标识符\", \"core\": \"必需\", \"domain\": \"DV\", \"language\": \"zh\", \"type\": \"sdtm_spec_field\", \"confidence_default\": 0.7, \"metadata_variable\": \"STUDYID\", \"source\": \"sdtm_spec_v3.2_temp\"}",
    "variable":"STUDYID",
    "label":"研究标识符",
    "core":"必需",
    "domain":"DV",
    "metadata_variable":"STUDYID",
    "language":"zh",
    "confidence_default":0.7,
    "source":"sdtm_spec_v3.2_temp",
    "keywords":null,
    "common_tables":null,
    "var_description":null
  },
  {
    "chunk_id":"SDTM_SPEC::DOMAIN",
    "chunk_text":"Variable: DOMAIN\nLabel: 域名缩写\nDomain: DV",
    "metadata":"{\"variable\": \"DOMAIN\", \"label\": \"域名缩写\", \"core\": \"必需\", \"domain\": \"DV\", \"language\": \"zh\", \"type\": \"sdtm_spec_field\", \"confidence_default\": 0.7, \"metadata_variable\": \"DOMAIN\", \"source\": \"sdtm_spec_v3.2_temp\"}",
    "variable":"DOMAIN",
    "label":"域名缩写",
    "core":"必需",
    "domain":"DV",
    "metadata_variable":"DOMAIN",
    "language":"zh",
    "confidence_default":0.7,
    "source":"sdtm_spec_v3.2_temp",
    "keywords":null,
    "common_tables":null,
    "var_description":null
  },
  {
    "chunk_id":"SDTM_SPEC::USUBJID",
    "chunk_text":"Variable: USUBJID\nLabel: 受试者唯一标识符\nDomain: DV",
    "metadata":"{\"variable\": \"USUBJID\", \"label\": \"受试者唯一标识符\", \"core\": \"必需\", \"domain\": \"DV\", \"language\": \"zh\", \"type\": \"sdtm_spec_field\", \"confidence_default\": 0.7, \"metadata_variable\": \"USUBJID\", \"source\": \"sdtm_spec_v3.2_temp\"}",
    "variable":"USUBJID",
    "label":"受试者唯一标识符",
    "core":"必需",
    "domain":"DV",
    "metadata_variable":"USUBJID",
    "language":"zh",
    "confidence_default":0.7,
    "source":"sdtm_spec_v3.2_temp",
    "keywords":null,
    "common_tables":null,
    "var_description":null
  },
  {
    "chunk_id":"SDTM_SPEC::DVSEQ",
    "chunk_text":"Variable: DVSEQ\nLabel: 序号\nDomain: DV",
    "metadata":"{\"variable\": \"DVSEQ\", \"label\": \"序号\", \"core\": \"必需\", \"domain\": \"DV\", \"language\": \"zh\", \"type\": \"sdtm_spec_field\", \"confidence_default\": 0.7, \"metadata_variable\": \"DVSEQ\", \"source\": \"sdtm_spec_v3.2_temp\"}",
    "variable":"DVSEQ",
    "label":"序号",
    "core":"必需",
    "domain":"DV",
    "metadata_variable":"DVSEQ",
    "language":"zh",
    "confidence_default":0.7,
    "source":"sdtm_spec_v3.2_temp",
    "keywords":null,
    "common_tables":null,
    "var_description":null
  },
  {
    "chunk_id":"SDTM_SPEC::DVREFID",
    "chunk_text":"Variable: DVREFID\nLabel: 参考ID\nDomain: DV",
    "metadata":"{\"variable\": \"DVREFID\", \"label\": \"参考ID\", \"core\": \"可有\", \"domain\": \"DV\", \"language\": \"zh\", \"type\": \"sdtm_spec_field\", \"confidence_default\": 0.7, \"metadata_variable\": \"DVREFID\", \"source\": \"sdtm_spec_v3.2_temp\"}",
    "variable":"DVREFID",
    "label":"参考ID",
    "core":"可有",
    "domain":"DV",
    "metadata_variable":"DVREFID",
    "language":"zh",
    "confidence_default":0.7,
    "source":"sdtm_spec_v3.2_temp",
    "keywords":null,
    "common_tables":null,
    "var_description":null
  },
  {
    "chunk_id":"SDTM_SPEC::DVSPID",
    "chunk_text":"Variable: DVSPID\nLabel: 自定义标识符\nDomain: DV",
    "metadata":"{\"variable\": \"DVSPID\", \"label\": \"自定义标识符\", \"core\": \"可有\", \"domain\": \"DV\", \"language\": \"zh\", \"type\": \"sdtm_spec_field\", \"confidence_default\": 0.7, \"metadata_variable\": \"DVSPID\", \"source\": \"sdtm_spec_v3.2_temp\"}",
    "variable":"DVSPID",
    "label":"自定义标识符",
    "core":"可有",
    "domain":"DV",
    "metadata_variable":"DVSPID",
    "language":"zh",
    "confidence_default":0.7,
    "source":"sdtm_spec_v3.2_temp",
    "keywords":null,
    "common_tables":null,
    "var_description":null
  },
  {
    "chunk_id":"SDTM_SPEC::DVTERM",
    "chunk_text":"Variable: DVTERM\nLabel: 方案偏离报告名称\nDomain: DV",
    "metadata":"{\"variable\": \"DVTERM\", \"label\": \"方案偏离报告名称\", \"core\": \"必需\", \"domain\": \"DV\", \"language\": \"zh\", \"type\": \"sdtm_spec_field\", \"confidence_default\": 0.7, \"metadata_variable\": \"DVTERM\", \"source\": \"sdtm_spec_v3.2_temp\"}",
    "variable":"DVTERM",
    "label":"方案偏离报告名称",
    "core":"必需",
    "domain":"DV",
    "metadata_variable":"DVTERM",
    "language":"zh",
    "confidence_default":0.7,
    "source":"sdtm_spec_v3.2_temp",
    "keywords":null,
    "common_tables":null,
    "var_description":null
  },
  {
    "chunk_id":"SDTM_SPEC::DVDECOD",
    "chunk_text":"Variable: DVDECOD\nLabel: 标准化名称\nDomain: DV",
    "metadata":"{\"variable\": \"DVDECOD\", \"label\": \"标准化名称\", \"core\": \"可有\", \"domain\": \"DV\", \"language\": \"zh\", \"type\": \"sdtm_spec_field\", \"confidence_default\": 0.7, \"metadata_variable\": \"DVDECOD\", \"source\": \"sdtm_spec_v3.2_temp\"}",
    "variable":"DVDECOD",
    "label":"标准化名称",
    "core":"可有",
    "domain":"DV",
    "metadata_variable":"DVDECOD",
    "language":"zh",
    "confidence_default":0.7,
    "source":"sdtm_spec_v3.2_temp",
    "keywords":null,
    "common_tables":null,
    "var_description":null
  },
  {
    "chunk_id":"SDTM_SPEC::DVCAT",
    "chunk_text":"Variable: DVCAT\nLabel: 类别\nDomain: DV",
    "metadata":"{\"variable\": \"DVCAT\", \"label\": \"类别\", \"core\": \"可有\", \"domain\": \"DV\", \"language\": \"zh\", \"type\": \"sdtm_spec_field\", \"confidence_default\": 0.7, \"metadata_variable\": \"DVCAT\", \"source\": \"sdtm_spec_v3.2_temp\"}",
    "variable":"DVCAT",
    "label":"类别",
    "core":"可有",
    "domain":"DV",
    "metadata_variable":"DVCAT",
    "language":"zh",
    "confidence_default":0.7,
    "source":"sdtm_spec_v3.2_temp",
    "keywords":null,
    "common_tables":null,
    "var_description":null
  },
  {
    "chunk_id":"SDTM_SPEC::DVSCAT",
    "chunk_text":"Variable: DVSCAT\nLabel: 子类\nDomain: DV",
    "metadata":"{\"variable\": \"DVSCAT\", \"label\": \"子类\", \"core\": \"可有\", \"domain\": \"DV\", \"language\": \"zh\", \"type\": \"sdtm_spec_field\", \"confidence_default\": 0.7, \"metadata_variable\": \"DVSCAT\", \"source\": \"sdtm_spec_v3.2_temp\"}",
    "variable":"DVSCAT",
    "label":"子类",
    "core":"可有",
    "domain":"DV",
    "metadata_variable":"DVSCAT",
    "language":"zh",
    "confidence_default":0.7,
    "source":"sdtm_spec_v3.2_temp",
    "keywords":null,
    "common_tables":null,
    "var_description":null
  },
  {
    "chunk_id":"SDTM_SPEC::EPOCH",
    "chunk_text":"Variable: EPOCH\nLabel: 时期\nDomain: DV",
    "metadata":"{\"variable\": \"EPOCH\", \"label\": \"时期\", \"core\": \"可有\", \"domain\": \"DV\", \"language\": \"zh\", \"type\": \"sdtm_spec_field\", \"confidence_default\": 0.7, \"metadata_variable\": \"EPOCH\", \"source\": \"sdtm_spec_v3.2_temp\"}",
    "variable":"EPOCH",
    "label":"时期",
    "core":"可有",
    "domain":"DV",
    "metadata_variable":"EPOCH",
    "language":"zh",
    "confidence_default":0.7,
    "source":"sdtm_spec_v3.2_temp",
    "keywords":null,
    "common_tables":null,
    "var_description":null
  },
  {
    "chunk_id":"SDTM_SPEC::DVSTDTC",
    "chunk_text":"Variable: DVSTDTC\nLabel: 开始日期\/时间\nDomain: DV",
    "metadata":"{\"variable\": \"DVSTDTC\", \"label\": \"开始日期\/时间\", \"core\": \"可有\", \"domain\": \"DV\", \"language\": \"zh\", \"type\": \"sdtm_spec_field\", \"confidence_default\": 0.7, \"metadata_variable\": \"DVSTDTC\", \"source\": \"sdtm_spec_v3.2_temp\"}",
    "variable":"DVSTDTC",
    "label":"开始日期\/时间",
    "core":"可有",
    "domain":"DV",
    "metadata_variable":"DVSTDTC",
    "language":"zh",
    "confidence_default":0.7,
    "source":"sdtm_spec_v3.2_temp",
    "keywords":null,
    "common_tables":null,
    "var_description":null
  },
  {
    "chunk_id":"SDTM_SPEC::DVENDTC",
    "chunk_text":"Variable: DVENDTC\nLabel: 结束日期\/时间\nDomain: DV",
    "metadata":"{\"variable\": \"DVENDTC\", \"label\": \"结束日期\/时间\", \"core\": \"可有\", \"domain\": \"DV\", \"language\": \"zh\", \"type\": \"sdtm_spec_field\", \"confidence_default\": 0.7, \"metadata_variable\": \"DVENDTC\", \"source\": \"sdtm_spec_v3.2_temp\"}",
    "variable":"DVENDTC",
    "label":"结束日期\/时间",
    "core":"可有",
    "domain":"DV",
    "metadata_variable":"DVENDTC",
    "language":"zh",
    "confidence_default":0.7,
    "source":"sdtm_spec_v3.2_temp",
    "keywords":null,
    "common_tables":null,
    "var_description":null
  },
  {
    "chunk_id":"SDTM_SPEC::STUDYID",
    "chunk_text":"Variable: STUDYID\nLabel: 研究标识符\nDomain: EC",
    "metadata":"{\"variable\": \"STUDYID\", \"label\": \"研究标识符\", \"core\": \"必需\", \"domain\": \"EC\", \"language\": \"zh\", \"type\": \"sdtm_spec_field\", \"confidence_default\": 0.7, \"metadata_variable\": \"STUDYID\", \"source\": \"sdtm_spec_v3.2_temp\"}",
    "variable":"STUDYID",
    "label":"研究标识符",
    "core":"必需",
    "domain":"EC",
    "metadata_variable":"STUDYID",
    "language":"zh",
    "confidence_default":0.7,
    "source":"sdtm_spec_v3.2_temp",
    "keywords":null,
    "common_tables":null,
    "var_description":null
  },
  {
    "chunk_id":"SDTM_SPEC::DOMAIN",
    "chunk_text":"Variable: DOMAIN\nLabel: 域名缩写\nDomain: EC",
    "metadata":"{\"variable\": \"DOMAIN\", \"label\": \"域名缩写\", \"core\": \"必需\", \"domain\": \"EC\", \"language\": \"zh\", \"type\": \"sdtm_spec_field\", \"confidence_default\": 0.7, \"metadata_variable\": \"DOMAIN\", \"source\": \"sdtm_spec_v3.2_temp\"}",
    "variable":"DOMAIN",
    "label":"域名缩写",
    "core":"必需",
    "domain":"EC",
    "metadata_variable":"DOMAIN",
    "language":"zh",
    "confidence_default":0.7,
    "source":"sdtm_spec_v3.2_temp",
    "keywords":null,
    "common_tables":null,
    "var_description":null
  },
  {
    "chunk_id":"SDTM_SPEC::USUBJID",
    "chunk_text":"Variable: USUBJID\nLabel: 受试者唯一标识符\nDomain: EC",
    "metadata":"{\"variable\": \"USUBJID\", \"label\": \"受试者唯一标识符\", \"core\": \"必需\", \"domain\": \"EC\", \"language\": \"zh\", \"type\": \"sdtm_spec_field\", \"confidence_default\": 0.7, \"metadata_variable\": \"USUBJID\", \"source\": \"sdtm_spec_v3.2_temp\"}",
    "variable":"USUBJID",
    "label":"受试者唯一标识符",
    "core":"必需",
    "domain":"EC",
    "metadata_variable":"USUBJID",
    "language":"zh",
    "confidence_default":0.7,
    "source":"sdtm_spec_v3.2_temp",
    "keywords":null,
    "common_tables":null,
    "var_description":null
  },
  {
    "chunk_id":"SDTM_SPEC::ECSEQ",
    "chunk_text":"Variable: ECSEQ\nLabel: 序号\nDomain: EC",
    "metadata":"{\"variable\": \"ECSEQ\", \"label\": \"序号\", \"core\": \"必需\", \"domain\": \"EC\", \"language\": \"zh\", \"type\": \"sdtm_spec_field\", \"confidence_default\": 0.7, \"metadata_variable\": \"ECSEQ\", \"source\": \"sdtm_spec_v3.2_temp\"}",
    "variable":"ECSEQ",
    "label":"序号",
    "core":"必需",
    "domain":"EC",
    "metadata_variable":"ECSEQ",
    "language":"zh",
    "confidence_default":0.7,
    "source":"sdtm_spec_v3.2_temp",
    "keywords":null,
    "common_tables":null,
    "var_description":null
  },
  {
    "chunk_id":"SDTM_SPEC::ECGRPID",
    "chunk_text":"Variable: ECGRPID\nLabel: 组合ID\nDomain: EC",
    "metadata":"{\"variable\": \"ECGRPID\", \"label\": \"组合ID\", \"core\": \"可有\", \"domain\": \"EC\", \"language\": \"zh\", \"type\": \"sdtm_spec_field\", \"confidence_default\": 0.7, \"metadata_variable\": \"ECGRPID\", \"source\": \"sdtm_spec_v3.2_temp\"}",
    "variable":"ECGRPID",
    "label":"组合ID",
    "core":"可有",
    "domain":"EC",
    "metadata_variable":"ECGRPID",
    "language":"zh",
    "confidence_default":0.7,
    "source":"sdtm_spec_v3.2_temp",
    "keywords":null,
    "common_tables":null,
    "var_description":null
  },
  {
    "chunk_id":"SDTM_SPEC::ECREFID",
    "chunk_text":"Variable: ECREFID\nLabel: 参考ID\nDomain: EC",
    "metadata":"{\"variable\": \"ECREFID\", \"label\": \"参考ID\", \"core\": \"可有\", \"domain\": \"EC\", \"language\": \"zh\", \"type\": \"sdtm_spec_field\", \"confidence_default\": 0.7, \"metadata_variable\": \"ECREFID\", \"source\": \"sdtm_spec_v3.2_temp\"}",
    "variable":"ECREFID",
    "label":"参考ID",
    "core":"可有",
    "domain":"EC",
    "metadata_variable":"ECREFID",
    "language":"zh",
    "confidence_default":0.7,
    "source":"sdtm_spec_v3.2_temp",
    "keywords":null,
    "common_tables":null,
    "var_description":null
  },
  {
    "chunk_id":"SDTM_SPEC::ECSPID",
    "chunk_text":"Variable: ECSPID\nLabel: 自定义标识符\nDomain: EC",
    "metadata":"{\"variable\": \"ECSPID\", \"label\": \"自定义标识符\", \"core\": \"可有\", \"domain\": \"EC\", \"language\": \"zh\", \"type\": \"sdtm_spec_field\", \"confidence_default\": 0.7, \"metadata_variable\": \"ECSPID\", \"source\": \"sdtm_spec_v3.2_temp\"}",
    "variable":"ECSPID",
    "label":"自定义标识符",
    "core":"可有",
    "domain":"EC",
    "metadata_variable":"ECSPID",
    "language":"zh",
    "confidence_default":0.7,
    "source":"sdtm_spec_v3.2_temp",
    "keywords":null,
    "common_tables":null,
    "var_description":null
  },
  {
    "chunk_id":"SDTM_SPEC::ECLNKID",
    "chunk_text":"Variable: ECLNKID\nLabel: 链接ID\nDomain: EC",
    "metadata":"{\"variable\": \"ECLNKID\", \"label\": \"链接ID\", \"core\": \"可有\", \"domain\": \"EC\", \"language\": \"zh\", \"type\": \"sdtm_spec_field\", \"confidence_default\": 0.7, \"metadata_variable\": \"ECLNKID\", \"source\": \"sdtm_spec_v3.2_temp\"}",
    "variable":"ECLNKID",
    "label":"链接ID",
    "core":"可有",
    "domain":"EC",
    "metadata_variable":"ECLNKID",
    "language":"zh",
    "confidence_default":0.7,
    "source":"sdtm_spec_v3.2_temp",
    "keywords":null,
    "common_tables":null,
    "var_description":null
  },
  {
    "chunk_id":"SDTM_SPEC::ECLNKGRP",
    "chunk_text":"Variable: ECLNKGRP\nLabel: 链接组合ID\nDomain: EC",
    "metadata":"{\"variable\": \"ECLNKGRP\", \"label\": \"链接组合ID\", \"core\": \"可有\", \"domain\": \"EC\", \"language\": \"zh\", \"type\": \"sdtm_spec_field\", \"confidence_default\": 0.7, \"metadata_variable\": \"ECLNKGRP\", \"source\": \"sdtm_spec_v3.2_temp\"}",
    "variable":"ECLNKGRP",
    "label":"链接组合ID",
    "core":"可有",
    "domain":"EC",
    "metadata_variable":"ECLNKGRP",
    "language":"zh",
    "confidence_default":0.7,
    "source":"sdtm_spec_v3.2_temp",
    "keywords":null,
    "common_tables":null,
    "var_description":null
  },
  {
    "chunk_id":"SDTM_SPEC::ECTRT",
    "chunk_text":"Variable: ECTRT\nLabel: 治疗名称\nDomain: EC",
    "metadata":"{\"variable\": \"ECTRT\", \"label\": \"治疗名称\", \"core\": \"必需\", \"domain\": \"EC\", \"language\": \"zh\", \"type\": \"sdtm_spec_field\", \"confidence_default\": 0.7, \"metadata_variable\": \"ECTRT\", \"source\": \"sdtm_spec_v3.2_temp\"}",
    "variable":"ECTRT",
    "label":"治疗名称",
    "core":"必需",
    "domain":"EC",
    "metadata_variable":"ECTRT",
    "language":"zh",
    "confidence_default":0.7,
    "source":"sdtm_spec_v3.2_temp",
    "keywords":null,
    "common_tables":null,
    "var_description":null
  },
  {
    "chunk_id":"SDTM_SPEC::ECMOOD",
    "chunk_text":"Variable: ECMOOD\nLabel: 情景模式\nDomain: EC",
    "metadata":"{\"variable\": \"ECMOOD\", \"label\": \"情景模式\", \"core\": \"可有\", \"domain\": \"EC\", \"language\": \"zh\", \"type\": \"sdtm_spec_field\", \"confidence_default\": 0.7, \"metadata_variable\": \"ECMOOD\", \"source\": \"sdtm_spec_v3.2_temp\"}",
    "variable":"ECMOOD",
    "label":"情景模式",
    "core":"可有",
    "domain":"EC",
    "metadata_variable":"ECMOOD",
    "language":"zh",
    "confidence_default":0.7,
    "source":"sdtm_spec_v3.2_temp",
    "keywords":null,
    "common_tables":null,
    "var_description":null
  },
  {
    "chunk_id":"SDTM_SPEC::ECCAT",
    "chunk_text":"Variable: ECCAT\nLabel: 类别\nDomain: EC",
    "metadata":"{\"variable\": \"ECCAT\", \"label\": \"类别\", \"core\": \"可有\", \"domain\": \"EC\", \"language\": \"zh\", \"type\": \"sdtm_spec_field\", \"confidence_default\": 0.7, \"metadata_variable\": \"ECCAT\", \"source\": \"sdtm_spec_v3.2_temp\"}",
    "variable":"ECCAT",
    "label":"类别",
    "core":"可有",
    "domain":"EC",
    "metadata_variable":"ECCAT",
    "language":"zh",
    "confidence_default":0.7,
    "source":"sdtm_spec_v3.2_temp",
    "keywords":null,
    "common_tables":null,
    "var_description":null
  },
  {
    "chunk_id":"SDTM_SPEC::ECSCAT",
    "chunk_text":"Variable: ECSCAT\nLabel: 子类\nDomain: EC",
    "metadata":"{\"variable\": \"ECSCAT\", \"label\": \"子类\", \"core\": \"可有\", \"domain\": \"EC\", \"language\": \"zh\", \"type\": \"sdtm_spec_field\", \"confidence_default\": 0.7, \"metadata_variable\": \"ECSCAT\", \"source\": \"sdtm_spec_v3.2_temp\"}",
    "variable":"ECSCAT",
    "label":"子类",
    "core":"可有",
    "domain":"EC",
    "metadata_variable":"ECSCAT",
    "language":"zh",
    "confidence_default":0.7,
    "source":"sdtm_spec_v3.2_temp",
    "keywords":null,
    "common_tables":null,
    "var_description":null
  },
  {
    "chunk_id":"SDTM_SPEC::ECPRESP",
    "chunk_text":"Variable: ECPRESP\nLabel: 预设\nDomain: EC",
    "metadata":"{\"variable\": \"ECPRESP\", \"label\": \"预设\", \"core\": \"可有\", \"domain\": \"EC\", \"language\": \"zh\", \"type\": \"sdtm_spec_field\", \"confidence_default\": 0.7, \"metadata_variable\": \"ECPRESP\", \"source\": \"sdtm_spec_v3.2_temp\"}",
    "variable":"ECPRESP",
    "label":"预设",
    "core":"可有",
    "domain":"EC",
    "metadata_variable":"ECPRESP",
    "language":"zh",
    "confidence_default":0.7,
    "source":"sdtm_spec_v3.2_temp",
    "keywords":null,
    "common_tables":null,
    "var_description":null
  },
  {
    "chunk_id":"SDTM_SPEC::ECOCCUR",
    "chunk_text":"Variable: ECOCCUR\nLabel: 是否发生\nDomain: EC",
    "metadata":"{\"variable\": \"ECOCCUR\", \"label\": \"是否发生\", \"core\": \"可有\", \"domain\": \"EC\", \"language\": \"zh\", \"type\": \"sdtm_spec_field\", \"confidence_default\": 0.7, \"metadata_variable\": \"ECOCCUR\", \"source\": \"sdtm_spec_v3.2_temp\"}",
    "variable":"ECOCCUR",
    "label":"是否发生",
    "core":"可有",
    "domain":"EC",
    "metadata_variable":"ECOCCUR",
    "language":"zh",
    "confidence_default":0.7,
    "source":"sdtm_spec_v3.2_temp",
    "keywords":null,
    "common_tables":null,
    "var_description":null
  },
  {
    "chunk_id":"SDTM_SPEC::ECDOSE",
    "chunk_text":"Variable: ECDOSE\nLabel: 单次剂量\nDomain: EC",
    "metadata":"{\"variable\": \"ECDOSE\", \"label\": \"单次剂量\", \"core\": \"期望\", \"domain\": \"EC\", \"language\": \"zh\", \"type\": \"sdtm_spec_field\", \"confidence_default\": 0.7, \"metadata_variable\": \"ECDOSE\", \"source\": \"sdtm_spec_v3.2_temp\"}",
    "variable":"ECDOSE",
    "label":"单次剂量",
    "core":"期望",
    "domain":"EC",
    "metadata_variable":"ECDOSE",
    "language":"zh",
    "confidence_default":0.7,
    "source":"sdtm_spec_v3.2_temp",
    "keywords":null,
    "common_tables":null,
    "var_description":null
  },
  {
    "chunk_id":"SDTM_SPEC::ECDOSTXT",
    "chunk_text":"Variable: ECDOSTXT\nLabel: 单次剂量描述\nDomain: EC",
    "metadata":"{\"variable\": \"ECDOSTXT\", \"label\": \"单次剂量描述\", \"core\": \"可有\", \"domain\": \"EC\", \"language\": \"zh\", \"type\": \"sdtm_spec_field\", \"confidence_default\": 0.7, \"metadata_variable\": \"ECDOSTXT\", \"source\": \"sdtm_spec_v3.2_temp\"}",
    "variable":"ECDOSTXT",
    "label":"单次剂量描述",
    "core":"可有",
    "domain":"EC",
    "metadata_variable":"ECDOSTXT",
    "language":"zh",
    "confidence_default":0.7,
    "source":"sdtm_spec_v3.2_temp",
    "keywords":null,
    "common_tables":null,
    "var_description":null
  },
  {
    "chunk_id":"SDTM_SPEC::ECDOSU",
    "chunk_text":"Variable: ECDOSU\nLabel: 剂量单位\nDomain: EC",
    "metadata":"{\"variable\": \"ECDOSU\", \"label\": \"剂量单位\", \"core\": \"期望\", \"domain\": \"EC\", \"language\": \"zh\", \"type\": \"sdtm_spec_field\", \"confidence_default\": 0.7, \"metadata_variable\": \"ECDOSU\", \"source\": \"sdtm_spec_v3.2_temp\"}",
    "variable":"ECDOSU",
    "label":"剂量单位",
    "core":"期望",
    "domain":"EC",
    "metadata_variable":"ECDOSU",
    "language":"zh",
    "confidence_default":0.7,
    "source":"sdtm_spec_v3.2_temp",
    "keywords":null,
    "common_tables":null,
    "var_description":null
  },
  {
    "chunk_id":"SDTM_SPEC::ECDOSFRM",
    "chunk_text":"Variable: ECDOSFRM\nLabel: 剂型\nDomain: EC",
    "metadata":"{\"variable\": \"ECDOSFRM\", \"label\": \"剂型\", \"core\": \"期望\", \"domain\": \"EC\", \"language\": \"zh\", \"type\": \"sdtm_spec_field\", \"confidence_default\": 0.7, \"metadata_variable\": \"ECDOSFRM\", \"source\": \"sdtm_spec_v3.2_temp\"}",
    "variable":"ECDOSFRM",
    "label":"剂型",
    "core":"期望",
    "domain":"EC",
    "metadata_variable":"ECDOSFRM",
    "language":"zh",
    "confidence_default":0.7,
    "source":"sdtm_spec_v3.2_temp",
    "keywords":null,
    "common_tables":null,
    "var_description":null
  },
  {
    "chunk_id":"SDTM_SPEC::ECDOSFRQ",
    "chunk_text":"Variable: ECDOSFRQ\nLabel: 频率\nDomain: EC",
    "metadata":"{\"variable\": \"ECDOSFRQ\", \"label\": \"频率\", \"core\": \"可有\", \"domain\": \"EC\", \"language\": \"zh\", \"type\": \"sdtm_spec_field\", \"confidence_default\": 0.7, \"metadata_variable\": \"ECDOSFRQ\", \"source\": \"sdtm_spec_v3.2_temp\"}",
    "variable":"ECDOSFRQ",
    "label":"频率",
    "core":"可有",
    "domain":"EC",
    "metadata_variable":"ECDOSFRQ",
    "language":"zh",
    "confidence_default":0.7,
    "source":"sdtm_spec_v3.2_temp",
    "keywords":null,
    "common_tables":null,
    "var_description":null
  },
  {
    "chunk_id":"SDTM_SPEC::ECDOSTOT",
    "chunk_text":"Variable: ECDOSTOT\nLabel: 每日总剂量\nDomain: EC",
    "metadata":"{\"variable\": \"ECDOSTOT\", \"label\": \"每日总剂量\", \"core\": \"可有\", \"domain\": \"EC\", \"language\": \"zh\", \"type\": \"sdtm_spec_field\", \"confidence_default\": 0.7, \"metadata_variable\": \"ECDOSTOT\", \"source\": \"sdtm_spec_v3.2_temp\"}",
    "variable":"ECDOSTOT",
    "label":"每日总剂量",
    "core":"可有",
    "domain":"EC",
    "metadata_variable":"ECDOSTOT",
    "language":"zh",
    "confidence_default":0.7,
    "source":"sdtm_spec_v3.2_temp",
    "keywords":null,
    "common_tables":null,
    "var_description":null
  },
  {
    "chunk_id":"SDTM_SPEC::ECDOSRGM",
    "chunk_text":"Variable: ECDOSRGM\nLabel: 计划给药方案\nDomain: EC",
    "metadata":"{\"variable\": \"ECDOSRGM\", \"label\": \"计划给药方案\", \"core\": \"可有\", \"domain\": \"EC\", \"language\": \"zh\", \"type\": \"sdtm_spec_field\", \"confidence_default\": 0.7, \"metadata_variable\": \"ECDOSRGM\", \"source\": \"sdtm_spec_v3.2_temp\"}",
    "variable":"ECDOSRGM",
    "label":"计划给药方案",
    "core":"可有",
    "domain":"EC",
    "metadata_variable":"ECDOSRGM",
    "language":"zh",
    "confidence_default":0.7,
    "source":"sdtm_spec_v3.2_temp",
    "keywords":null,
    "common_tables":null,
    "var_description":null
  },
  {
    "chunk_id":"SDTM_SPEC::ECROUTE",
    "chunk_text":"Variable: ECROUTE\nLabel: 给药途径\nDomain: EC",
    "metadata":"{\"variable\": \"ECROUTE\", \"label\": \"给药途径\", \"core\": \"可有\", \"domain\": \"EC\", \"language\": \"zh\", \"type\": \"sdtm_spec_field\", \"confidence_default\": 0.7, \"metadata_variable\": \"ECROUTE\", \"source\": \"sdtm_spec_v3.2_temp\"}",
    "variable":"ECROUTE",
    "label":"给药途径",
    "core":"可有",
    "domain":"EC",
    "metadata_variable":"ECROUTE",
    "language":"zh",
    "confidence_default":0.7,
    "source":"sdtm_spec_v3.2_temp",
    "keywords":null,
    "common_tables":null,
    "var_description":null
  },
  {
    "chunk_id":"SDTM_SPEC::ECLOT",
    "chunk_text":"Variable: ECLOT\nLabel: 批号\nDomain: EC",
    "metadata":"{\"variable\": \"ECLOT\", \"label\": \"批号\", \"core\": \"可有\", \"domain\": \"EC\", \"language\": \"zh\", \"type\": \"sdtm_spec_field\", \"confidence_default\": 0.7, \"metadata_variable\": \"ECLOT\", \"source\": \"sdtm_spec_v3.2_temp\"}",
    "variable":"ECLOT",
    "label":"批号",
    "core":"可有",
    "domain":"EC",
    "metadata_variable":"ECLOT",
    "language":"zh",
    "confidence_default":0.7,
    "source":"sdtm_spec_v3.2_temp",
    "keywords":null,
    "common_tables":null,
    "var_description":null
  },
  {
    "chunk_id":"SDTM_SPEC::ECLOC",
    "chunk_text":"Variable: ECLOC\nLabel: 给药部位\nDomain: EC",
    "metadata":"{\"variable\": \"ECLOC\", \"label\": \"给药部位\", \"core\": \"可有\", \"domain\": \"EC\", \"language\": \"zh\", \"type\": \"sdtm_spec_field\", \"confidence_default\": 0.7, \"metadata_variable\": \"ECLOC\", \"source\": \"sdtm_spec_v3.2_temp\"}",
    "variable":"ECLOC",
    "label":"给药部位",
    "core":"可有",
    "domain":"EC",
    "metadata_variable":"ECLOC",
    "language":"zh",
    "confidence_default":0.7,
    "source":"sdtm_spec_v3.2_temp",
    "keywords":null,
    "common_tables":null,
    "var_description":null
  },
  {
    "chunk_id":"SDTM_SPEC::ECLAT",
    "chunk_text":"Variable: ECLAT\nLabel: 偏侧\nDomain: EC",
    "metadata":"{\"variable\": \"ECLAT\", \"label\": \"偏侧\", \"core\": \"可有\", \"domain\": \"EC\", \"language\": \"zh\", \"type\": \"sdtm_spec_field\", \"confidence_default\": 0.7, \"metadata_variable\": \"ECLAT\", \"source\": \"sdtm_spec_v3.2_temp\"}",
    "variable":"ECLAT",
    "label":"偏侧",
    "core":"可有",
    "domain":"EC",
    "metadata_variable":"ECLAT",
    "language":"zh",
    "confidence_default":0.7,
    "source":"sdtm_spec_v3.2_temp",
    "keywords":null,
    "common_tables":null,
    "var_description":null
  },
  {
    "chunk_id":"SDTM_SPEC::ECDIR",
    "chunk_text":"Variable: ECDIR\nLabel: 方位\nDomain: EC",
    "metadata":"{\"variable\": \"ECDIR\", \"label\": \"方位\", \"core\": \"可有\", \"domain\": \"EC\", \"language\": \"zh\", \"type\": \"sdtm_spec_field\", \"confidence_default\": 0.7, \"metadata_variable\": \"ECDIR\", \"source\": \"sdtm_spec_v3.2_temp\"}",
    "variable":"ECDIR",
    "label":"方位",
    "core":"可有",
    "domain":"EC",
    "metadata_variable":"ECDIR",
    "language":"zh",
    "confidence_default":0.7,
    "source":"sdtm_spec_v3.2_temp",
    "keywords":null,
    "common_tables":null,
    "var_description":null
  },
  {
    "chunk_id":"SDTM_SPEC::ECPORTOT",
    "chunk_text":"Variable: ECPORTOT\nLabel: 部分\nDomain: EC",
    "metadata":"{\"variable\": \"ECPORTOT\", \"label\": \"部分\", \"core\": \"可有\", \"domain\": \"EC\", \"language\": \"zh\", \"type\": \"sdtm_spec_field\", \"confidence_default\": 0.7, \"metadata_variable\": \"ECPORTOT\", \"source\": \"sdtm_spec_v3.2_temp\"}",
    "variable":"ECPORTOT",
    "label":"部分",
    "core":"可有",
    "domain":"EC",
    "metadata_variable":"ECPORTOT",
    "language":"zh",
    "confidence_default":0.7,
    "source":"sdtm_spec_v3.2_temp",
    "keywords":null,
    "common_tables":null,
    "var_description":null
  },
  {
    "chunk_id":"SDTM_SPEC::ECFAST",
    "chunk_text":"Variable: ECFAST\nLabel: 是否空腹\nDomain: EC",
    "metadata":"{\"variable\": \"ECFAST\", \"label\": \"是否空腹\", \"core\": \"可有\", \"domain\": \"EC\", \"language\": \"zh\", \"type\": \"sdtm_spec_field\", \"confidence_default\": 0.7, \"metadata_variable\": \"ECFAST\", \"source\": \"sdtm_spec_v3.2_temp\"}",
    "variable":"ECFAST",
    "label":"是否空腹",
    "core":"可有",
    "domain":"EC",
    "metadata_variable":"ECFAST",
    "language":"zh",
    "confidence_default":0.7,
    "source":"sdtm_spec_v3.2_temp",
    "keywords":null,
    "common_tables":null,
    "var_description":null
  },
  {
    "chunk_id":"SDTM_SPEC::ECPSTRG",
    "chunk_text":"Variable: ECPSTRG\nLabel: 药物规格\nDomain: EC",
    "metadata":"{\"variable\": \"ECPSTRG\", \"label\": \"药物规格\", \"core\": \"可有\", \"domain\": \"EC\", \"language\": \"zh\", \"type\": \"sdtm_spec_field\", \"confidence_default\": 0.7, \"metadata_variable\": \"ECPSTRG\", \"source\": \"sdtm_spec_v3.2_temp\"}",
    "variable":"ECPSTRG",
    "label":"药物规格",
    "core":"可有",
    "domain":"EC",
    "metadata_variable":"ECPSTRG",
    "language":"zh",
    "confidence_default":0.7,
    "source":"sdtm_spec_v3.2_temp",
    "keywords":null,
    "common_tables":null,
    "var_description":null
  },
  {
    "chunk_id":"SDTM_SPEC::ECPSTRGU",
    "chunk_text":"Variable: ECPSTRGU\nLabel: 药物规格单位\nDomain: EC",
    "metadata":"{\"variable\": \"ECPSTRGU\", \"label\": \"药物规格单位\", \"core\": \"可有\", \"domain\": \"EC\", \"language\": \"zh\", \"type\": \"sdtm_spec_field\", \"confidence_default\": 0.7, \"metadata_variable\": \"ECPSTRGU\", \"source\": \"sdtm_spec_v3.2_temp\"}",
    "variable":"ECPSTRGU",
    "label":"药物规格单位",
    "core":"可有",
    "domain":"EC",
    "metadata_variable":"ECPSTRGU",
    "language":"zh",
    "confidence_default":0.7,
    "source":"sdtm_spec_v3.2_temp",
    "keywords":null,
    "common_tables":null,
    "var_description":null
  },
  {
    "chunk_id":"SDTM_SPEC::ECADJ",
    "chunk_text":"Variable: ECADJ\nLabel: 剂量调整原因\nDomain: EC",
    "metadata":"{\"variable\": \"ECADJ\", \"label\": \"剂量调整原因\", \"core\": \"可有\", \"domain\": \"EC\", \"language\": \"zh\", \"type\": \"sdtm_spec_field\", \"confidence_default\": 0.7, \"metadata_variable\": \"ECADJ\", \"source\": \"sdtm_spec_v3.2_temp\"}",
    "variable":"ECADJ",
    "label":"剂量调整原因",
    "core":"可有",
    "domain":"EC",
    "metadata_variable":"ECADJ",
    "language":"zh",
    "confidence_default":0.7,
    "source":"sdtm_spec_v3.2_temp",
    "keywords":null,
    "common_tables":null,
    "var_description":null
  },
  {
    "chunk_id":"SDTM_SPEC::EPOCH",
    "chunk_text":"Variable: EPOCH\nLabel: 时期\nDomain: EC",
    "metadata":"{\"variable\": \"EPOCH\", \"label\": \"时期\", \"core\": \"可有\", \"domain\": \"EC\", \"language\": \"zh\", \"type\": \"sdtm_spec_field\", \"confidence_default\": 0.7, \"metadata_variable\": \"EPOCH\", \"source\": \"sdtm_spec_v3.2_temp\"}",
    "variable":"EPOCH",
    "label":"时期",
    "core":"可有",
    "domain":"EC",
    "metadata_variable":"EPOCH",
    "language":"zh",
    "confidence_default":0.7,
    "source":"sdtm_spec_v3.2_temp",
    "keywords":null,
    "common_tables":null,
    "var_description":null
  },
  {
    "chunk_id":"SDTM_SPEC::ECSTDTC",
    "chunk_text":"Variable: ECSTDTC\nLabel: 开始日期\/时间\nDomain: EC",
    "metadata":"{\"variable\": \"ECSTDTC\", \"label\": \"开始日期\/时间\", \"core\": \"期望\", \"domain\": \"EC\", \"language\": \"zh\", \"type\": \"sdtm_spec_field\", \"confidence_default\": 0.7, \"metadata_variable\": \"ECSTDTC\", \"source\": \"sdtm_spec_v3.2_temp\"}",
    "variable":"ECSTDTC",
    "label":"开始日期\/时间",
    "core":"期望",
    "domain":"EC",
    "metadata_variable":"ECSTDTC",
    "language":"zh",
    "confidence_default":0.7,
    "source":"sdtm_spec_v3.2_temp",
    "keywords":null,
    "common_tables":null,
    "var_description":null
  },
  {
    "chunk_id":"SDTM_SPEC::ECENDTC",
    "chunk_text":"Variable: ECENDTC\nLabel: 结束日期\/时间\nDomain: EC",
    "metadata":"{\"variable\": \"ECENDTC\", \"label\": \"结束日期\/时间\", \"core\": \"期望\", \"domain\": \"EC\", \"language\": \"zh\", \"type\": \"sdtm_spec_field\", \"confidence_default\": 0.7, \"metadata_variable\": \"ECENDTC\", \"source\": \"sdtm_spec_v3.2_temp\"}",
    "variable":"ECENDTC",
    "label":"结束日期\/时间",
    "core":"期望",
    "domain":"EC",
    "metadata_variable":"ECENDTC",
    "language":"zh",
    "confidence_default":0.7,
    "source":"sdtm_spec_v3.2_temp",
    "keywords":null,
    "common_tables":null,
    "var_description":null
  },
  {
    "chunk_id":"SDTM_SPEC::ECSTDY",
    "chunk_text":"Variable: ECSTDY\nLabel: 开始日\nDomain: EC",
    "metadata":"{\"variable\": \"ECSTDY\", \"label\": \"开始日\", \"core\": \"可有\", \"domain\": \"EC\", \"language\": \"zh\", \"type\": \"sdtm_spec_field\", \"confidence_default\": 0.7, \"metadata_variable\": \"ECSTDY\", \"source\": \"sdtm_spec_v3.2_temp\"}",
    "variable":"ECSTDY",
    "label":"开始日",
    "core":"可有",
    "domain":"EC",
    "metadata_variable":"ECSTDY",
    "language":"zh",
    "confidence_default":0.7,
    "source":"sdtm_spec_v3.2_temp",
    "keywords":null,
    "common_tables":null,
    "var_description":null
  },
  {
    "chunk_id":"SDTM_SPEC::ECENDY",
    "chunk_text":"Variable: ECENDY\nLabel: 结束日\nDomain: EC",
    "metadata":"{\"variable\": \"ECENDY\", \"label\": \"结束日\", \"core\": \"可有\", \"domain\": \"EC\", \"language\": \"zh\", \"type\": \"sdtm_spec_field\", \"confidence_default\": 0.7, \"metadata_variable\": \"ECENDY\", \"source\": \"sdtm_spec_v3.2_temp\"}",
    "variable":"ECENDY",
    "label":"结束日",
    "core":"可有",
    "domain":"EC",
    "metadata_variable":"ECENDY",
    "language":"zh",
    "confidence_default":0.7,
    "source":"sdtm_spec_v3.2_temp",
    "keywords":null,
    "common_tables":null,
    "var_description":null
  },
  {
    "chunk_id":"SDTM_SPEC::ECDUR",
    "chunk_text":"Variable: ECDUR\nLabel: 持续时间\nDomain: EC",
    "metadata":"{\"variable\": \"ECDUR\", \"label\": \"持续时间\", \"core\": \"可有\", \"domain\": \"EC\", \"language\": \"zh\", \"type\": \"sdtm_spec_field\", \"confidence_default\": 0.7, \"metadata_variable\": \"ECDUR\", \"source\": \"sdtm_spec_v3.2_temp\"}",
    "variable":"ECDUR",
    "label":"持续时间",
    "core":"可有",
    "domain":"EC",
    "metadata_variable":"ECDUR",
    "language":"zh",
    "confidence_default":0.7,
    "source":"sdtm_spec_v3.2_temp",
    "keywords":null,
    "common_tables":null,
    "var_description":null
  },
  {
    "chunk_id":"SDTM_SPEC::ECTPT",
    "chunk_text":"Variable: ECTPT\nLabel: 计划时点名称\nDomain: EC",
    "metadata":"{\"variable\": \"ECTPT\", \"label\": \"计划时点名称\", \"core\": \"可有\", \"domain\": \"EC\", \"language\": \"zh\", \"type\": \"sdtm_spec_field\", \"confidence_default\": 0.7, \"metadata_variable\": \"ECTPT\", \"source\": \"sdtm_spec_v3.2_temp\"}",
    "variable":"ECTPT",
    "label":"计划时点名称",
    "core":"可有",
    "domain":"EC",
    "metadata_variable":"ECTPT",
    "language":"zh",
    "confidence_default":0.7,
    "source":"sdtm_spec_v3.2_temp",
    "keywords":null,
    "common_tables":null,
    "var_description":null
  },
  {
    "chunk_id":"SDTM_SPEC::ECTPTNUM",
    "chunk_text":"Variable: ECTPTNUM\nLabel: 计划时点编号\nDomain: EC",
    "metadata":"{\"variable\": \"ECTPTNUM\", \"label\": \"计划时点编号\", \"core\": \"可有\", \"domain\": \"EC\", \"language\": \"zh\", \"type\": \"sdtm_spec_field\", \"confidence_default\": 0.7, \"metadata_variable\": \"ECTPTNUM\", \"source\": \"sdtm_spec_v3.2_temp\"}",
    "variable":"ECTPTNUM",
    "label":"计划时点编号",
    "core":"可有",
    "domain":"EC",
    "metadata_variable":"ECTPTNUM",
    "language":"zh",
    "confidence_default":0.7,
    "source":"sdtm_spec_v3.2_temp",
    "keywords":null,
    "common_tables":null,
    "var_description":null
  },
  {
    "chunk_id":"SDTM_SPEC::ECELTM",
    "chunk_text":"Variable: ECELTM\nLabel: 距离参照时点计划时间\nDomain: EC",
    "metadata":"{\"variable\": \"ECELTM\", \"label\": \"距离参照时点计划时间\", \"core\": \"可有\", \"domain\": \"EC\", \"language\": \"zh\", \"type\": \"sdtm_spec_field\", \"confidence_default\": 0.7, \"metadata_variable\": \"ECELTM\", \"source\": \"sdtm_spec_v3.2_temp\"}",
    "variable":"ECELTM",
    "label":"距离参照时点计划时间",
    "core":"可有",
    "domain":"EC",
    "metadata_variable":"ECELTM",
    "language":"zh",
    "confidence_default":0.7,
    "source":"sdtm_spec_v3.2_temp",
    "keywords":null,
    "common_tables":null,
    "var_description":null
  },
  {
    "chunk_id":"SDTM_SPEC::ECTPTREF",
    "chunk_text":"Variable: ECTPTREF\nLabel: 参照时点\nDomain: EC",
    "metadata":"{\"variable\": \"ECTPTREF\", \"label\": \"参照时点\", \"core\": \"可有\", \"domain\": \"EC\", \"language\": \"zh\", \"type\": \"sdtm_spec_field\", \"confidence_default\": 0.7, \"metadata_variable\": \"ECTPTREF\", \"source\": \"sdtm_spec_v3.2_temp\"}",
    "variable":"ECTPTREF",
    "label":"参照时点",
    "core":"可有",
    "domain":"EC",
    "metadata_variable":"ECTPTREF",
    "language":"zh",
    "confidence_default":0.7,
    "source":"sdtm_spec_v3.2_temp",
    "keywords":null,
    "common_tables":null,
    "var_description":null
  },
  {
    "chunk_id":"SDTM_SPEC::ECRFTDTC",
    "chunk_text":"Variable: ECRFTDTC\nLabel: 参照时点日期\/时间\nDomain: EC",
    "metadata":"{\"variable\": \"ECRFTDTC\", \"label\": \"参照时点日期\/时间\", \"core\": \"可有\", \"domain\": \"EC\", \"language\": \"zh\", \"type\": \"sdtm_spec_field\", \"confidence_default\": 0.7, \"metadata_variable\": \"ECRFTDTC\", \"source\": \"sdtm_spec_v3.2_temp\"}",
    "variable":"ECRFTDTC",
    "label":"参照时点日期\/时间",
    "core":"可有",
    "domain":"EC",
    "metadata_variable":"ECRFTDTC",
    "language":"zh",
    "confidence_default":0.7,
    "source":"sdtm_spec_v3.2_temp",
    "keywords":null,
    "common_tables":null,
    "var_description":null
  },
  {
    "chunk_id":"SDTM_SPEC::STUDYID",
    "chunk_text":"Variable: STUDYID\nLabel: 研究标识符\nDomain: EG\n域描述: 心电图域 - 记录受试者的心电图检查结果",
    "metadata":"{\"variable\": \"STUDYID\", \"label\": \"研究标识符\", \"core\": \"必需\", \"domain\": \"EG\", \"language\": \"zh\", \"type\": \"sdtm_spec_field\", \"confidence_default\": 0.7, \"metadata_variable\": \"STUDYID\", \"source\": \"sdtm_spec_v3.2_temp\"}",
    "variable":"STUDYID",
    "label":"研究标识符",
    "core":"必需",
    "domain":"EG",
    "metadata_variable":"STUDYID",
    "language":"zh",
    "confidence_default":0.7,
    "source":"sdtm_spec_v3.2_temp",
    "keywords":null,
    "common_tables":null,
    "var_description":null
  },
  {
    "chunk_id":"SDTM_SPEC::DOMAIN",
    "chunk_text":"Variable: DOMAIN\nLabel: 域名缩写\nDomain: EG\n域描述: 心电图域 - 记录受试者的心电图检查结果",
    "metadata":"{\"variable\": \"DOMAIN\", \"label\": \"域名缩写\", \"core\": \"必需\", \"domain\": \"EG\", \"language\": \"zh\", \"type\": \"sdtm_spec_field\", \"confidence_default\": 0.7, \"metadata_variable\": \"DOMAIN\", \"source\": \"sdtm_spec_v3.2_temp\"}",
    "variable":"DOMAIN",
    "label":"域名缩写",
    "core":"必需",
    "domain":"EG",
    "metadata_variable":"DOMAIN",
    "language":"zh",
    "confidence_default":0.7,
    "source":"sdtm_spec_v3.2_temp",
    "keywords":null,
    "common_tables":null,
    "var_description":null
  },
  {
    "chunk_id":"SDTM_SPEC::USUBJID",
    "chunk_text":"Variable: USUBJID\nLabel: 受试者唯一标识符\nDomain: EG\n域描述: 心电图域 - 记录受试者的心电图检查结果",
    "metadata":"{\"variable\": \"USUBJID\", \"label\": \"受试者唯一标识符\", \"core\": \"必需\", \"domain\": \"EG\", \"language\": \"zh\", \"type\": \"sdtm_spec_field\", \"confidence_default\": 0.7, \"metadata_variable\": \"USUBJID\", \"source\": \"sdtm_spec_v3.2_temp\"}",
    "variable":"USUBJID",
    "label":"受试者唯一标识符",
    "core":"必需",
    "domain":"EG",
    "metadata_variable":"USUBJID",
    "language":"zh",
    "confidence_default":0.7,
    "source":"sdtm_spec_v3.2_temp",
    "keywords":null,
    "common_tables":null,
    "var_description":null
  },
  {
    "chunk_id":"SDTM_SPEC::EGSEQ",
    "chunk_text":"Variable: EGSEQ\nLabel: 序号\nDomain: EG\n域描述: 心电图域 - 记录受试者的心电图检查结果",
    "metadata":"{\"variable\": \"EGSEQ\", \"label\": \"序号\", \"core\": \"必需\", \"domain\": \"EG\", \"language\": \"zh\", \"type\": \"sdtm_spec_field\", \"confidence_default\": 0.7, \"metadata_variable\": \"EGSEQ\", \"source\": \"sdtm_spec_v3.2_temp\"}",
    "variable":"EGSEQ",
    "label":"序号",
    "core":"必需",
    "domain":"EG",
    "metadata_variable":"EGSEQ",
    "language":"zh",
    "confidence_default":0.7,
    "source":"sdtm_spec_v3.2_temp",
    "keywords":null,
    "common_tables":null,
    "var_description":null
  },
  {
    "chunk_id":"SDTM_SPEC::EGGRPID",
    "chunk_text":"Variable: EGGRPID\nLabel: 组合ID\nDomain: EG\n域描述: 心电图域 - 记录受试者的心电图检查结果",
    "metadata":"{\"variable\": \"EGGRPID\", \"label\": \"组合ID\", \"core\": \"可有\", \"domain\": \"EG\", \"language\": \"zh\", \"type\": \"sdtm_spec_field\", \"confidence_default\": 0.7, \"metadata_variable\": \"EGGRPID\", \"source\": \"sdtm_spec_v3.2_temp\"}",
    "variable":"EGGRPID",
    "label":"组合ID",
    "core":"可有",
    "domain":"EG",
    "metadata_variable":"EGGRPID",
    "language":"zh",
    "confidence_default":0.7,
    "source":"sdtm_spec_v3.2_temp",
    "keywords":null,
    "common_tables":null,
    "var_description":null
  },
  {
    "chunk_id":"SDTM_SPEC::EGREFID",
    "chunk_text":"Variable: EGREFID\nLabel: 参考ID\nDomain: EG\n域描述: 心电图域 - 记录受试者的心电图检查结果",
    "metadata":"{\"variable\": \"EGREFID\", \"label\": \"参考ID\", \"core\": \"可有\", \"domain\": \"EG\", \"language\": \"zh\", \"type\": \"sdtm_spec_field\", \"confidence_default\": 0.7, \"metadata_variable\": \"EGREFID\", \"source\": \"sdtm_spec_v3.2_temp\"}",
    "variable":"EGREFID",
    "label":"参考ID",
    "core":"可有",
    "domain":"EG",
    "metadata_variable":"EGREFID",
    "language":"zh",
    "confidence_default":0.7,
    "source":"sdtm_spec_v3.2_temp",
    "keywords":null,
    "common_tables":null,
    "var_description":null
  },
  {
    "chunk_id":"SDTM_SPEC::EGSPID",
    "chunk_text":"Variable: EGSPID\nLabel: 自定义标识符\nDomain: EG\n域描述: 心电图域 - 记录受试者的心电图检查结果",
    "metadata":"{\"variable\": \"EGSPID\", \"label\": \"自定义标识符\", \"core\": \"可有\", \"domain\": \"EG\", \"language\": \"zh\", \"type\": \"sdtm_spec_field\", \"confidence_default\": 0.7, \"metadata_variable\": \"EGSPID\", \"source\": \"sdtm_spec_v3.2_temp\"}",
    "variable":"EGSPID",
    "label":"自定义标识符",
    "core":"可有",
    "domain":"EG",
    "metadata_variable":"EGSPID",
    "language":"zh",
    "confidence_default":0.7,
    "source":"sdtm_spec_v3.2_temp",
    "keywords":null,
    "common_tables":null,
    "var_description":null
  },
  {
    "chunk_id":"SDTM_SPEC::EGTESTCD",
    "chunk_text":"Variable: EGTESTCD\nLabel: 检查项简称\nDomain: EG\n域描述: 心电图域 - 记录受试者的心电图检查结果\n变量描述: 心电图检查的测试代码\n关键词: 心电图代码, ECG代码, EKG代码\n常见表名: 心电图, ECG, EG",
    "metadata":"{\"variable\": \"EGTESTCD\", \"label\": \"检查项简称\", \"core\": \"必需\", \"domain\": \"EG\", \"language\": \"zh\", \"type\": \"sdtm_spec_field\", \"confidence_default\": 0.7, \"metadata_variable\": \"EGTESTCD\", \"source\": \"sdtm_spec_v3.2_temp\"}",
    "variable":"EGTESTCD",
    "label":"检查项简称",
    "core":"必需",
    "domain":"EG",
    "metadata_variable":"EGTESTCD",
    "language":"zh",
    "confidence_default":0.7,
    "source":"sdtm_spec_v3.2_temp",
    "keywords":[
      "心电图代码",
      "ECG代码",
      "EKG代码"
    ],
    "common_tables":[
      "心电图",
      "ECG",
      "EG"
    ],
    "var_description":"心电图检查的测试代码"
  },
  {
    "chunk_id":"SDTM_SPEC::EGTEST",
    "chunk_text":"Variable: EGTEST\nLabel: 检查项名称\nDomain: EG\n域描述: 心电图域 - 记录受试者的心电图检查结果",
    "metadata":"{\"variable\": \"EGTEST\", \"label\": \"检查项名称\", \"core\": \"必需\", \"domain\": \"EG\", \"language\": \"zh\", \"type\": \"sdtm_spec_field\", \"confidence_default\": 0.7, \"metadata_variable\": \"EGTEST\", \"source\": \"sdtm_spec_v3.2_temp\"}",
    "variable":"EGTEST",
    "label":"检查项名称",
    "core":"必需",
    "domain":"EG",
    "metadata_variable":"EGTEST",
    "language":"zh",
    "confidence_default":0.7,
    "source":"sdtm_spec_v3.2_temp",
    "keywords":null,
    "common_tables":null,
    "var_description":null
  },
  {
    "chunk_id":"SDTM_SPEC::EGCAT",
    "chunk_text":"Variable: EGCAT\nLabel: 类别\nDomain: EG\n域描述: 心电图域 - 记录受试者的心电图检查结果",
    "metadata":"{\"variable\": \"EGCAT\", \"label\": \"类别\", \"core\": \"可有\", \"domain\": \"EG\", \"language\": \"zh\", \"type\": \"sdtm_spec_field\", \"confidence_default\": 0.7, \"metadata_variable\": \"EGCAT\", \"source\": \"sdtm_spec_v3.2_temp\"}",
    "variable":"EGCAT",
    "label":"类别",
    "core":"可有",
    "domain":"EG",
    "metadata_variable":"EGCAT",
    "language":"zh",
    "confidence_default":0.7,
    "source":"sdtm_spec_v3.2_temp",
    "keywords":null,
    "common_tables":null,
    "var_description":null
  },
  {
    "chunk_id":"SDTM_SPEC::EGSCAT",
    "chunk_text":"Variable: EGSCAT\nLabel: 子类\nDomain: EG\n域描述: 心电图域 - 记录受试者的心电图检查结果",
    "metadata":"{\"variable\": \"EGSCAT\", \"label\": \"子类\", \"core\": \"可有\", \"domain\": \"EG\", \"language\": \"zh\", \"type\": \"sdtm_spec_field\", \"confidence_default\": 0.7, \"metadata_variable\": \"EGSCAT\", \"source\": \"sdtm_spec_v3.2_temp\"}",
    "variable":"EGSCAT",
    "label":"子类",
    "core":"可有",
    "domain":"EG",
    "metadata_variable":"EGSCAT",
    "language":"zh",
    "confidence_default":0.7,
    "source":"sdtm_spec_v3.2_temp",
    "keywords":null,
    "common_tables":null,
    "var_description":null
  },
  {
    "chunk_id":"SDTM_SPEC::EGPOS",
    "chunk_text":"Variable: EGPOS\nLabel: 体位\nDomain: EG\n域描述: 心电图域 - 记录受试者的心电图检查结果",
    "metadata":"{\"variable\": \"EGPOS\", \"label\": \"体位\", \"core\": \"可有\", \"domain\": \"EG\", \"language\": \"zh\", \"type\": \"sdtm_spec_field\", \"confidence_default\": 0.7, \"metadata_variable\": \"EGPOS\", \"source\": \"sdtm_spec_v3.2_temp\"}",
    "variable":"EGPOS",
    "label":"体位",
    "core":"可有",
    "domain":"EG",
    "metadata_variable":"EGPOS",
    "language":"zh",
    "confidence_default":0.7,
    "source":"sdtm_spec_v3.2_temp",
    "keywords":null,
    "common_tables":null,
    "var_description":null
  },
  {
    "chunk_id":"SDTM_SPEC::EGORRES",
    "chunk_text":"Variable: EGORRES\nLabel: 原始结果\nDomain: EG\n域描述: 心电图域 - 记录受试者的心电图检查结果\n变量描述: 心电图检查的原始结果\n关键词: 心电图结果, ECG结果, EKG结果\n常见表名: 心电图, ECG, EG",
    "metadata":"{\"variable\": \"EGORRES\", \"label\": \"原始结果\", \"core\": \"期望\", \"domain\": \"EG\", \"language\": \"zh\", \"type\": \"sdtm_spec_field\", \"confidence_default\": 0.7, \"metadata_variable\": \"EGORRES\", \"source\": \"sdtm_spec_v3.2_temp\"}",
    "variable":"EGORRES",
    "label":"原始结果",
    "core":"期望",
    "domain":"EG",
    "metadata_variable":"EGORRES",
    "language":"zh",
    "confidence_default":0.7,
    "source":"sdtm_spec_v3.2_temp",
    "keywords":[
      "心电图结果",
      "ECG结果",
      "EKG结果"
    ],
    "common_tables":[
      "心电图",
      "ECG",
      "EG"
    ],
    "var_description":"心电图检查的原始结果"
  },
  {
    "chunk_id":"SDTM_SPEC::EGORRESU",
    "chunk_text":"Variable: EGORRESU\nLabel: 原始单位\nDomain: EG\n域描述: 心电图域 - 记录受试者的心电图检查结果",
    "metadata":"{\"variable\": \"EGORRESU\", \"label\": \"原始单位\", \"core\": \"可有\", \"domain\": \"EG\", \"language\": \"zh\", \"type\": \"sdtm_spec_field\", \"confidence_default\": 0.7, \"metadata_variable\": \"EGORRESU\", \"source\": \"sdtm_spec_v3.2_temp\"}",
    "variable":"EGORRESU",
    "label":"原始单位",
    "core":"可有",
    "domain":"EG",
    "metadata_variable":"EGORRESU",
    "language":"zh",
    "confidence_default":0.7,
    "source":"sdtm_spec_v3.2_temp",
    "keywords":null,
    "common_tables":null,
    "var_description":null
  },
  {
    "chunk_id":"SDTM_SPEC::EGSTRESC",
    "chunk_text":"Variable: EGSTRESC\nLabel: 标准化结果\nDomain: EG\n域描述: 心电图域 - 记录受试者的心电图检查结果",
    "metadata":"{\"variable\": \"EGSTRESC\", \"label\": \"标准化结果\", \"core\": \"期望\", \"domain\": \"EG\", \"language\": \"zh\", \"type\": \"sdtm_spec_field\", \"confidence_default\": 0.7, \"metadata_variable\": \"EGSTRESC\", \"source\": \"sdtm_spec_v3.2_temp\"}",
    "variable":"EGSTRESC",
    "label":"标准化结果",
    "core":"期望",
    "domain":"EG",
    "metadata_variable":"EGSTRESC",
    "language":"zh",
    "confidence_default":0.7,
    "source":"sdtm_spec_v3.2_temp",
    "keywords":null,
    "common_tables":null,
    "var_description":null
  },
  {
    "chunk_id":"SDTM_SPEC::EGSTRESN",
    "chunk_text":"Variable: EGSTRESN\nLabel: 标准化结果(N)\nDomain: EG\n域描述: 心电图域 - 记录受试者的心电图检查结果",
    "metadata":"{\"variable\": \"EGSTRESN\", \"label\": \"标准化结果(N)\", \"core\": \"可有\", \"domain\": \"EG\", \"language\": \"zh\", \"type\": \"sdtm_spec_field\", \"confidence_default\": 0.7, \"metadata_variable\": \"EGSTRESN\", \"source\": \"sdtm_spec_v3.2_temp\"}",
    "variable":"EGSTRESN",
    "label":"标准化结果(N)",
    "core":"可有",
    "domain":"EG",
    "metadata_variable":"EGSTRESN",
    "language":"zh",
    "confidence_default":0.7,
    "source":"sdtm_spec_v3.2_temp",
    "keywords":null,
    "common_tables":null,
    "var_description":null
  },
  {
    "chunk_id":"SDTM_SPEC::EGSTRESU",
    "chunk_text":"Variable: EGSTRESU\nLabel: 标准化单位\nDomain: EG\n域描述: 心电图域 - 记录受试者的心电图检查结果",
    "metadata":"{\"variable\": \"EGSTRESU\", \"label\": \"标准化单位\", \"core\": \"可有\", \"domain\": \"EG\", \"language\": \"zh\", \"type\": \"sdtm_spec_field\", \"confidence_default\": 0.7, \"metadata_variable\": \"EGSTRESU\", \"source\": \"sdtm_spec_v3.2_temp\"}",
    "variable":"EGSTRESU",
    "label":"标准化单位",
    "core":"可有",
    "domain":"EG",
    "metadata_variable":"EGSTRESU",
    "language":"zh",
    "confidence_default":0.7,
    "source":"sdtm_spec_v3.2_temp",
    "keywords":null,
    "common_tables":null,
    "var_description":null
  },
  {
    "chunk_id":"SDTM_SPEC::EGSTAT",
    "chunk_text":"Variable: EGSTAT\nLabel: 未做状态\nDomain: EG\n域描述: 心电图域 - 记录受试者的心电图检查结果",
    "metadata":"{\"variable\": \"EGSTAT\", \"label\": \"未做状态\", \"core\": \"可有\", \"domain\": \"EG\", \"language\": \"zh\", \"type\": \"sdtm_spec_field\", \"confidence_default\": 0.7, \"metadata_variable\": \"EGSTAT\", \"source\": \"sdtm_spec_v3.2_temp\"}",
    "variable":"EGSTAT",
    "label":"未做状态",
    "core":"可有",
    "domain":"EG",
    "metadata_variable":"EGSTAT",
    "language":"zh",
    "confidence_default":0.7,
    "source":"sdtm_spec_v3.2_temp",
    "keywords":null,
    "common_tables":null,
    "var_description":null
  },
  {
    "chunk_id":"SDTM_SPEC::EGREASND",
    "chunk_text":"Variable: EGREASND\nLabel: 未做原因\nDomain: EG\n域描述: 心电图域 - 记录受试者的心电图检查结果",
    "metadata":"{\"variable\": \"EGREASND\", \"label\": \"未做原因\", \"core\": \"可有\", \"domain\": \"EG\", \"language\": \"zh\", \"type\": \"sdtm_spec_field\", \"confidence_default\": 0.7, \"metadata_variable\": \"EGREASND\", \"source\": \"sdtm_spec_v3.2_temp\"}",
    "variable":"EGREASND",
    "label":"未做原因",
    "core":"可有",
    "domain":"EG",
    "metadata_variable":"EGREASND",
    "language":"zh",
    "confidence_default":0.7,
    "source":"sdtm_spec_v3.2_temp",
    "keywords":null,
    "common_tables":null,
    "var_description":null
  },
  {
    "chunk_id":"SDTM_SPEC::EGXFN",
    "chunk_text":"Variable: EGXFN\nLabel: 外部文件路径\nDomain: EG\n域描述: 心电图域 - 记录受试者的心电图检查结果",
    "metadata":"{\"variable\": \"EGXFN\", \"label\": \"外部文件路径\", \"core\": \"\", \"domain\": \"EG\", \"language\": \"zh\", \"type\": \"sdtm_spec_field\", \"confidence_default\": 0.7, \"metadata_variable\": \"EGXFN\", \"source\": \"sdtm_spec_v3.2_temp\"}",
    "variable":"EGXFN",
    "label":"外部文件路径",
    "core":"",
    "domain":"EG",
    "metadata_variable":"EGXFN",
    "language":"zh",
    "confidence_default":0.7,
    "source":"sdtm_spec_v3.2_temp",
    "keywords":null,
    "common_tables":null,
    "var_description":null
  },
  {
    "chunk_id":"SDTM_SPEC::EGNAM",
    "chunk_text":"Variable: EGNAM\nLabel: 实验室\/供应商名称\nDomain: EG\n域描述: 心电图域 - 记录受试者的心电图检查结果",
    "metadata":"{\"variable\": \"EGNAM\", \"label\": \"实验室\/供应商名称\", \"core\": \"可有\", \"domain\": \"EG\", \"language\": \"zh\", \"type\": \"sdtm_spec_field\", \"confidence_default\": 0.7, \"metadata_variable\": \"EGNAM\", \"source\": \"sdtm_spec_v3.2_temp\"}",
    "variable":"EGNAM",
    "label":"实验室\/供应商名称",
    "core":"可有",
    "domain":"EG",
    "metadata_variable":"EGNAM",
    "language":"zh",
    "confidence_default":0.7,
    "source":"sdtm_spec_v3.2_temp",
    "keywords":null,
    "common_tables":null,
    "var_description":null
  },
  {
    "chunk_id":"SDTM_SPEC::EGLEAD",
    "chunk_text":"Variable: EGLEAD\nLabel: 导联\nDomain: EG\n域描述: 心电图域 - 记录受试者的心电图检查结果",
    "metadata":"{\"variable\": \"EGLEAD\", \"label\": \"导联\", \"core\": \"可有\", \"domain\": \"EG\", \"language\": \"zh\", \"type\": \"sdtm_spec_field\", \"confidence_default\": 0.7, \"metadata_variable\": \"EGLEAD\", \"source\": \"sdtm_spec_v3.2_temp\"}",
    "variable":"EGLEAD",
    "label":"导联",
    "core":"可有",
    "domain":"EG",
    "metadata_variable":"EGLEAD",
    "language":"zh",
    "confidence_default":0.7,
    "source":"sdtm_spec_v3.2_temp",
    "keywords":null,
    "common_tables":null,
    "var_description":null
  },
  {
    "chunk_id":"SDTM_SPEC::EGMETHOD",
    "chunk_text":"Variable: EGMETHOD\nLabel: 检查方法\nDomain: EG\n域描述: 心电图域 - 记录受试者的心电图检查结果",
    "metadata":"{\"variable\": \"EGMETHOD\", \"label\": \"检查方法\", \"core\": \"可有\", \"domain\": \"EG\", \"language\": \"zh\", \"type\": \"sdtm_spec_field\", \"confidence_default\": 0.7, \"metadata_variable\": \"EGMETHOD\", \"source\": \"sdtm_spec_v3.2_temp\"}",
    "variable":"EGMETHOD",
    "label":"检查方法",
    "core":"可有",
    "domain":"EG",
    "metadata_variable":"EGMETHOD",
    "language":"zh",
    "confidence_default":0.7,
    "source":"sdtm_spec_v3.2_temp",
    "keywords":null,
    "common_tables":null,
    "var_description":null
  },
  {
    "chunk_id":"SDTM_SPEC::EGBLFL",
    "chunk_text":"Variable: EGBLFL\nLabel: 基线标帜\nDomain: EG\n域描述: 心电图域 - 记录受试者的心电图检查结果",
    "metadata":"{\"variable\": \"EGBLFL\", \"label\": \"基线标帜\", \"core\": \"期望\", \"domain\": \"EG\", \"language\": \"zh\", \"type\": \"sdtm_spec_field\", \"confidence_default\": 0.7, \"metadata_variable\": \"EGBLFL\", \"source\": \"sdtm_spec_v3.2_temp\"}",
    "variable":"EGBLFL",
    "label":"基线标帜",
    "core":"期望",
    "domain":"EG",
    "metadata_variable":"EGBLFL",
    "language":"zh",
    "confidence_default":0.7,
    "source":"sdtm_spec_v3.2_temp",
    "keywords":null,
    "common_tables":null,
    "var_description":null
  },
  {
    "chunk_id":"SDTM_SPEC::EGDRVFL",
    "chunk_text":"Variable: EGDRVFL\nLabel: 衍生标帜\nDomain: EG\n域描述: 心电图域 - 记录受试者的心电图检查结果",
    "metadata":"{\"variable\": \"EGDRVFL\", \"label\": \"衍生标帜\", \"core\": \"可有\", \"domain\": \"EG\", \"language\": \"zh\", \"type\": \"sdtm_spec_field\", \"confidence_default\": 0.7, \"metadata_variable\": \"EGDRVFL\", \"source\": \"sdtm_spec_v3.2_temp\"}",
    "variable":"EGDRVFL",
    "label":"衍生标帜",
    "core":"可有",
    "domain":"EG",
    "metadata_variable":"EGDRVFL",
    "language":"zh",
    "confidence_default":0.7,
    "source":"sdtm_spec_v3.2_temp",
    "keywords":null,
    "common_tables":null,
    "var_description":null
  },
  {
    "chunk_id":"SDTM_SPEC::EGEVAL",
    "chunk_text":"Variable: EGEVAL\nLabel: 评估者\nDomain: EG\n域描述: 心电图域 - 记录受试者的心电图检查结果",
    "metadata":"{\"variable\": \"EGEVAL\", \"label\": \"评估者\", \"core\": \"可有\", \"domain\": \"EG\", \"language\": \"zh\", \"type\": \"sdtm_spec_field\", \"confidence_default\": 0.7, \"metadata_variable\": \"EGEVAL\", \"source\": \"sdtm_spec_v3.2_temp\"}",
    "variable":"EGEVAL",
    "label":"评估者",
    "core":"可有",
    "domain":"EG",
    "metadata_variable":"EGEVAL",
    "language":"zh",
    "confidence_default":0.7,
    "source":"sdtm_spec_v3.2_temp",
    "keywords":null,
    "common_tables":null,
    "var_description":null
  },
  {
    "chunk_id":"SDTM_SPEC::VISITNUM",
    "chunk_text":"Variable: VISITNUM\nLabel: 访视编号\nDomain: EG\n域描述: 心电图域 - 记录受试者的心电图检查结果",
    "metadata":"{\"variable\": \"VISITNUM\", \"label\": \"访视编号\", \"core\": \"期望\", \"domain\": \"EG\", \"language\": \"zh\", \"type\": \"sdtm_spec_field\", \"confidence_default\": 0.7, \"metadata_variable\": \"VISITNUM\", \"source\": \"sdtm_spec_v3.2_temp\"}",
    "variable":"VISITNUM",
    "label":"访视编号",
    "core":"期望",
    "domain":"EG",
    "metadata_variable":"VISITNUM",
    "language":"zh",
    "confidence_default":0.7,
    "source":"sdtm_spec_v3.2_temp",
    "keywords":null,
    "common_tables":null,
    "var_description":null
  },
  {
    "chunk_id":"SDTM_SPEC::VISIT",
    "chunk_text":"Variable: VISIT\nLabel: 访视名称\nDomain: EG\n域描述: 心电图域 - 记录受试者的心电图检查结果",
    "metadata":"{\"variable\": \"VISIT\", \"label\": \"访视名称\", \"core\": \"可有\", \"domain\": \"EG\", \"language\": \"zh\", \"type\": \"sdtm_spec_field\", \"confidence_default\": 0.7, \"metadata_variable\": \"VISIT\", \"source\": \"sdtm_spec_v3.2_temp\"}",
    "variable":"VISIT",
    "label":"访视名称",
    "core":"可有",
    "domain":"EG",
    "metadata_variable":"VISIT",
    "language":"zh",
    "confidence_default":0.7,
    "source":"sdtm_spec_v3.2_temp",
    "keywords":null,
    "common_tables":null,
    "var_description":null
  },
  {
    "chunk_id":"SDTM_SPEC::VISITDY",
    "chunk_text":"Variable: VISITDY\nLabel: 计划访视日\nDomain: EG\n域描述: 心电图域 - 记录受试者的心电图检查结果",
    "metadata":"{\"variable\": \"VISITDY\", \"label\": \"计划访视日\", \"core\": \"可有\", \"domain\": \"EG\", \"language\": \"zh\", \"type\": \"sdtm_spec_field\", \"confidence_default\": 0.7, \"metadata_variable\": \"VISITDY\", \"source\": \"sdtm_spec_v3.2_temp\"}",
    "variable":"VISITDY",
    "label":"计划访视日",
    "core":"可有",
    "domain":"EG",
    "metadata_variable":"VISITDY",
    "language":"zh",
    "confidence_default":0.7,
    "source":"sdtm_spec_v3.2_temp",
    "keywords":null,
    "common_tables":null,
    "var_description":null
  },
  {
    "chunk_id":"SDTM_SPEC::EGDTC",
    "chunk_text":"Variable: EGDTC\nLabel: 检查日期\/时间\nDomain: EG\n域描述: 心电图域 - 记录受试者的心电图检查结果",
    "metadata":"{\"variable\": \"EGDTC\", \"label\": \"检查日期\/时间\", \"core\": \"期望\", \"domain\": \"EG\", \"language\": \"zh\", \"type\": \"sdtm_spec_field\", \"confidence_default\": 0.7, \"metadata_variable\": \"EGDTC\", \"source\": \"sdtm_spec_v3.2_temp\"}",
    "variable":"EGDTC",
    "label":"检查日期\/时间",
    "core":"期望",
    "domain":"EG",
    "metadata_variable":"EGDTC",
    "language":"zh",
    "confidence_default":0.7,
    "source":"sdtm_spec_v3.2_temp",
    "keywords":null,
    "common_tables":null,
    "var_description":null
  },
  {
    "chunk_id":"SDTM_SPEC::EGDY",
    "chunk_text":"Variable: EGDY\nLabel: 检查日\nDomain: EG\n域描述: 心电图域 - 记录受试者的心电图检查结果",
    "metadata":"{\"variable\": \"EGDY\", \"label\": \"检查日\", \"core\": \"可有\", \"domain\": \"EG\", \"language\": \"zh\", \"type\": \"sdtm_spec_field\", \"confidence_default\": 0.7, \"metadata_variable\": \"EGDY\", \"source\": \"sdtm_spec_v3.2_temp\"}",
    "variable":"EGDY",
    "label":"检查日",
    "core":"可有",
    "domain":"EG",
    "metadata_variable":"EGDY",
    "language":"zh",
    "confidence_default":0.7,
    "source":"sdtm_spec_v3.2_temp",
    "keywords":null,
    "common_tables":null,
    "var_description":null
  },
  {
    "chunk_id":"SDTM_SPEC::EGTPT",
    "chunk_text":"Variable: EGTPT\nLabel: 计划时点名称\nDomain: EG\n域描述: 心电图域 - 记录受试者的心电图检查结果",
    "metadata":"{\"variable\": \"EGTPT\", \"label\": \"计划时点名称\", \"core\": \"可有\", \"domain\": \"EG\", \"language\": \"zh\", \"type\": \"sdtm_spec_field\", \"confidence_default\": 0.7, \"metadata_variable\": \"EGTPT\", \"source\": \"sdtm_spec_v3.2_temp\"}",
    "variable":"EGTPT",
    "label":"计划时点名称",
    "core":"可有",
    "domain":"EG",
    "metadata_variable":"EGTPT",
    "language":"zh",
    "confidence_default":0.7,
    "source":"sdtm_spec_v3.2_temp",
    "keywords":null,
    "common_tables":null,
    "var_description":null
  },
  {
    "chunk_id":"SDTM_SPEC::EGTPTNUM",
    "chunk_text":"Variable: EGTPTNUM\nLabel: 计划时间点编号\nDomain: EG\n域描述: 心电图域 - 记录受试者的心电图检查结果",
    "metadata":"{\"variable\": \"EGTPTNUM\", \"label\": \"计划时间点编号\", \"core\": \"可有\", \"domain\": \"EG\", \"language\": \"zh\", \"type\": \"sdtm_spec_field\", \"confidence_default\": 0.7, \"metadata_variable\": \"EGTPTNUM\", \"source\": \"sdtm_spec_v3.2_temp\"}",
    "variable":"EGTPTNUM",
    "label":"计划时间点编号",
    "core":"可有",
    "domain":"EG",
    "metadata_variable":"EGTPTNUM",
    "language":"zh",
    "confidence_default":0.7,
    "source":"sdtm_spec_v3.2_temp",
    "keywords":null,
    "common_tables":null,
    "var_description":null
  },
  {
    "chunk_id":"SDTM_SPEC::EGELTM",
    "chunk_text":"Variable: EGELTM\nLabel: 距离参照时点计划时间\nDomain: EG\n域描述: 心电图域 - 记录受试者的心电图检查结果",
    "metadata":"{\"variable\": \"EGELTM\", \"label\": \"距离参照时点计划时间\", \"core\": \"可有\", \"domain\": \"EG\", \"language\": \"zh\", \"type\": \"sdtm_spec_field\", \"confidence_default\": 0.7, \"metadata_variable\": \"EGELTM\", \"source\": \"sdtm_spec_v3.2_temp\"}",
    "variable":"EGELTM",
    "label":"距离参照时点计划时间",
    "core":"可有",
    "domain":"EG",
    "metadata_variable":"EGELTM",
    "language":"zh",
    "confidence_default":0.7,
    "source":"sdtm_spec_v3.2_temp",
    "keywords":null,
    "common_tables":null,
    "var_description":null
  },
  {
    "chunk_id":"SDTM_SPEC::EGTPTREF",
    "chunk_text":"Variable: EGTPTREF\nLabel: 参照时点\nDomain: EG\n域描述: 心电图域 - 记录受试者的心电图检查结果",
    "metadata":"{\"variable\": \"EGTPTREF\", \"label\": \"参照时点\", \"core\": \"可有\", \"domain\": \"EG\", \"language\": \"zh\", \"type\": \"sdtm_spec_field\", \"confidence_default\": 0.7, \"metadata_variable\": \"EGTPTREF\", \"source\": \"sdtm_spec_v3.2_temp\"}",
    "variable":"EGTPTREF",
    "label":"参照时点",
    "core":"可有",
    "domain":"EG",
    "metadata_variable":"EGTPTREF",
    "language":"zh",
    "confidence_default":0.7,
    "source":"sdtm_spec_v3.2_temp",
    "keywords":null,
    "common_tables":null,
    "var_description":null
  },
  {
    "chunk_id":"SDTM_SPEC::EGRFTDTC",
    "chunk_text":"Variable: EGRFTDTC\nLabel: 参照时点日期\/时间\nDomain: EG\n域描述: 心电图域 - 记录受试者的心电图检查结果",
    "metadata":"{\"variable\": \"EGRFTDTC\", \"label\": \"参照时点日期\/时间\", \"core\": \"可有\", \"domain\": \"EG\", \"language\": \"zh\", \"type\": \"sdtm_spec_field\", \"confidence_default\": 0.7, \"metadata_variable\": \"EGRFTDTC\", \"source\": \"sdtm_spec_v3.2_temp\"}",
    "variable":"EGRFTDTC",
    "label":"参照时点日期\/时间",
    "core":"可有",
    "domain":"EG",
    "metadata_variable":"EGRFTDTC",
    "language":"zh",
    "confidence_default":0.7,
    "source":"sdtm_spec_v3.2_temp",
    "keywords":null,
    "common_tables":null,
    "var_description":null
  },
  {
    "chunk_id":"SDTM_SPEC::STUDYID",
    "chunk_text":"Variable: STUDYID\nLabel: 研究标识符\nDomain: EX\n域描述: 暴露域 - 记录受试者的研究药物暴露信息",
    "metadata":"{\"variable\": \"STUDYID\", \"label\": \"研究标识符\", \"core\": \"必需\", \"domain\": \"EX\", \"language\": \"zh\", \"type\": \"sdtm_spec_field\", \"confidence_default\": 0.7, \"metadata_variable\": \"STUDYID\", \"source\": \"sdtm_spec_v3.2_temp\"}",
    "variable":"STUDYID",
    "label":"研究标识符",
    "core":"必需",
    "domain":"EX",
    "metadata_variable":"STUDYID",
    "language":"zh",
    "confidence_default":0.7,
    "source":"sdtm_spec_v3.2_temp",
    "keywords":null,
    "common_tables":null,
    "var_description":null
  },
  {
    "chunk_id":"SDTM_SPEC::DOMAIN",
    "chunk_text":"Variable: DOMAIN\nLabel: 域名缩写\nDomain: EX\n域描述: 暴露域 - 记录受试者的研究药物暴露信息",
